B.E.(eV)           Raw Intensity       Peak Sum            Background          1s1/2              1s1/2              1s1/2              difference
 300                746,6 
 299,9              734,8 
 299,8              744,6 
 299,7              767,2 
 299,6              757,2 
 299,5              750,6 
 299,4              767 
 299,3              733,8 
 299,2              762,2 
 299,1              753,4 
 299                746,4 
 298,9              726,6 
 298,8              719,6 
 298,7              763,8 
 298,6              730,8 
 298,5              762 
 298,4              773,6 
 298,3              739,6 
 298,2              754,4 
 298,1              736,4 
 298                736,6 
 297,9              749,2 
 297,8              739,6 
 297,7              767 
 297,6              733,6 
 297,5              771,8 
 297,4              764,4 
 297,3              771,4 
 297,2              761,8 
 297,1              767,8 
 297                745,6 
 296,9              743 
 296,8              742 
 296,7              747 
 296,6              749,6 
 296,5              723,8 
 296,4              757,8 
 296,3              750,4 
 296,2              747,8 
 296,1              716,4 
 296                736,4 
 295,9              741,8 
 295,8              732 
 295,7              737,4 
 295,6              731,6 
 295,5              733,4 
 295,4              744,2 
 295,3              744,4 
 295,2              716,6 
 295,1              728 
 295                730,6 
 294,9              703,8 
 294,8              743,4 
 294,7              714 
 294,6              739,6 
 294,5              714,4 
 294,4              749,6 
 294,3              711,2 
 294,2              742 
 294,1              722,4 
 294                729 
 293,9              737,2 
 293,8              714,8 
 293,7              745,4 
 293,6              720,6 
 293,5              720,2 
 293,4              721,6 
 293,3              713,2 
 293,2              754,4 
 293,1              745,8 
 293                722,6 
 292,9              732,6 
 292,8              708,4 
 292,7              729,8 
 292,6              735,2 
 292,5              725,4 
 292,4              709,8 
 292,3              725,4 
 292,2              720,6 
 292,1              720,8 
 292                714,2               721,7881            720,6857            721,6238            720,6857            720,85             -1,102356 
 291,9              713,6               721,8738            720,6857            721,6492            720,6857            720,9103           -8,273865 
 291,8              722,6               721,9839            720,6893            721,6791            720,6893            720,994             0,6160889 
 291,7              727,6               722,1158            720,6883            721,7057            720,6883            721,0984            5,484131 
 291,6              737,6               722,2787            720,6849            721,731             720,6849            721,2326            15,32129 
 291,5              703,4               722,4779            720,6765            721,7524            720,6765            721,402            -19,07788 
 291,4              734,2               722,7455            720,6851            721,7922            720,6851            721,6384            11,45447 
 291,3              740,2               723,0608            720,6783            721,818             720,6783            721,9211            17,13922 
 291,2              738,2               723,4493            720,6686            721,8423            720,6686            722,2756            14,75067 
 291,1              712,8               723,9307            720,6599            721,8691            720,6599            722,7215           -11,13074 
 291                733,2               724,5339            720,6638            721,9102            720,6638            723,2875            8,666077 
 290,9              731                 725,2554            720,6575            721,9429            720,6575            723,97              5,744629 
 290,8              731,8               726,1271            720,6523            721,9785            720,6523            724,801             5,672913 
 290,7              752,2               727,1696            720,6468            722,0156            720,6468            725,8008            25,0304 
 290,6              710,4               728,3972            720,631             722,0447            720,631             726,9836           -17,99719 
 290,5              699,6               729,864             720,6362            722,0968            720,6362            728,4034           -30,26404 
 290,4              727,6               731,5779            720,6467            722,1567            720,6467            730,0678           -3,977905 
 290,3              729,8               733,5413            720,6432            722,2052            720,6432            731,9793           -3,741333 
 290,2              723,4               735,7861            720,6386            722,2552            720,6386            734,1695           -12,38611 
 290,1              742,4               738,3341            720,6373            722,3115            720,6373            736,6599            4,065918 
 290                750                 741,1831            720,6264            722,3613            720,6264            739,4482            8,816895 
 289,9              731,2               744,3444            720,6118            722,4107            720,6118            742,5454           -13,14435 
 289,8              739                 747,8292            720,6064            722,473             720,6064            745,9626           -8,829163 
 289,7              752,2               751,613             720,5973            722,5353            720,5973            749,675             0,5869751 
 289,6              754,6               755,6761            720,5815            722,5952            720,5815            753,6625           -1,076172 
 289,5              739,6               759,9935            720,5646            722,6584            720,5646            757,8997           -20,39349 
 289,4              759                 764,5341            720,5551            722,7339            720,5551            762,3553           -5,534119 
 289,3              776,2               769,231             720,5359            722,8049            720,5359            766,962             6,968994 
 289,2              743,8               774,0241            720,5082            722,873             720,5082            771,6592           -30,22412 
 289,1              787,4               778,8727            720,4966            722,9635            720,4966            776,4058            8,527283 
 289                812,4               783,6615            720,4633            723,0389            720,4634            781,0857            28,73853 
 288,9              793,2               788,3181            720,4174            723,1091            720,4177            785,6261            4,881958 
 288,8              821                 792,7798            720,3811            723,1968            720,3817            789,9636            28,22015 
 288,7              808,6               796,9365            720,3309            723,2793            720,332             793,9871            11,66345 
 288,6              795,2               800,7276            720,287             723,3776            720,2892            797,6348           -5,527588 
 288,5              811,6               804,074             720,2496            723,4929            720,2542            800,8263            7,52594 
 288,4              821,6               806,8909            720,2041            723,6114            720,2129            803,4748            14,70911 
 288,3              802,6               809,1227            720,1536            723,7376            720,1702            805,522            -6,522705 
 288,2              803,8               810,7386            720,1124            723,8871            720,1434            806,933            -6,938599 
 288,1              797,6               811,7015            720,0707            724,0515            720,127             807,6644           -14,1015 
 288                816,6               812,0049            720,0321            724,2361            720,1321            807,7008            4,595093 
 287,9              823                 811,6484            719,9839            724,4303            720,1581            807,0279            11,35162 
 287,8              795,4               810,6733            719,9326            724,6426            720,2291            805,6669           -15,27332 
 287,7              789,8               809,1574            719,895             724,8922            720,3887            803,6664           -19,35742 
 287,6              821,6               807,1766            719,8601            725,1716            720,6649            801,0603            14,4234 
 287,5              795,2               804,8287            719,8094            725,4655            721,0925            797,8894           -9,628662 
 287,4              799,4               802,2897            719,7719            725,8073            721,7734            794,2527           -2,889709 
 287,3              788                 799,7228            719,7321            726,1872            722,7868            790,213            -11,72278 
 287,2              791,6               797,3459            719,6981            726,6204            724,2585            785,8632           -5,745911 
 287,1              799,6               795,3889            719,6622            727,11              726,3241            781,2793            4,21106 
 287                766                 794,1145            719,6224            727,6697            729,1434            776,5463           -28,1145 
 286,9              803,4               793,8254            719,5993            728,3443            732,9117            771,7681            9,574585 
 286,8              786,2               794,7773            719,5575            729,1371            737,7682            766,9869           -8,577271 
 286,7              817,8               797,2849            719,5243            730,1368            743,8942            762,3024            20,51514 
 286,6              817,4               801,6               719,4753            731,4169            751,3844            757,7494            15,80005 
 286,5              816,8               807,9907            719,4265            733,1436            760,3026            753,3976            8,809265 
 286,4              826,8               816,6846            719,3779            735,5442            770,6071            749,2892            10,11536 
 286,3              825,4               827,885             719,3244            738,9439            782,1388            745,4511           -2,484985 
 286,2              859,6               841,7976            719,2715            743,8096            794,6197            741,9114            17,80237 
 286,1              850,2               858,639             719,2016            750,7468            807,6328            738,6627           -8,439026 
 286                886,6               878,7015            719,1363            760,5675            820,675             735,7315            7,898499 
 285,9              907,6               902,306             719,0528            774,2025            833,1177            733,0913            5,294006 
 285,8              919,2               929,8757            718,9588            792,7326            844,3209            730,7397           -10,67566 
 285,7              947,6               961,8615            718,859             817,2608            853,6516            728,6671           -14,26154 
 285,6              972,8               998,6995            718,745             848,8011            860,5432            726,8451           -25,89948 
 285,5              1039                1040,657            718,6183            888,0824            864,5566            725,2545           -1,656738 
 285,4              1096,2              1087,683            718,4586            935,3422            865,4058            723,8521            8,51709 
 285,3              1160                1139,277            718,2703            990,1689            863,03              722,6188            20,72314 
 285,2              1211,4              1194,282            718,0502            1051,284            857,5693            721,5284            17,11829 
 285,1              1276,4              1250,857            717,8042            1116,542            849,3601            720,564             25,5426 
 285                1299,8              1306,315            717,5258            1182,781            838,8871            719,698            -6,514771 
 284,9              1373,8              1357,267            717,2355            1246,038            826,7685            718,9317            16,53284 
 284,8              1392,8              1399,698            716,9082            1301,667            813,6252            718,222            -6,897827 
 284,7              1421,6              1429,396            716,5713            1344,831            800,1269            717,581            -7,796509 
 284,6              1424                1442,531            716,2198            1371,142            786,8392            716,9896           -18,53125 
 284,5              1434,2              1436,533            715,8671            1377,557            774,2608            716,4491           -2,333008 
 284,4              1400,2              1410,93             715,509             1363,254            762,7482            715,9456           -10,72961 
 284,3              1377                1367,632            715,1677            1329,919            752,5557            715,4926            9,368164 
 284,2              1320,4              1310,389            714,8378            1281,196            743,7906            715,0777            10,01111 
 284,1              1252,8              1243,842            714,5359            1221,732            736,4696            714,7116            8,958252 
 284                1166                1172,763            714,2676            1156,379            730,524             714,3953           -6,763062 
 283,9              1091,2              1101,458            714,0424            1089,578            725,8302            714,1344           -10,25757 
 283,8              1019                1033,457            713,8544            1025,028            722,2169            713,9202           -14,45667 
 283,7              980,6               971,4087            713,7023            965,5573            719,507             713,749             9,191284 
 283,6              910,8               916,9429            713,5692            912,9684            717,5108            713,6021           -6,142883 
 283,5              879,8               870,8849            713,4709            868,2435            716,0894            713,4938            8,915039 
 283,4              846                 833,2401            713,388             831,5223            715,0899            713,4039            12,75995 
 283,3              794,6               803,4513            713,3219            802,3582            714,4041            713,3328           -8,851318 
 283,2              781,2               780,5953            713,2814            779,9146            713,9547            713,2888            0,6046753 
 283,1              779,4               763,5135            713,2475            763,0986            713,6573            713,2525            15,88654 
 283                736,6               751,052             713,2145            750,8046            713,4586            713,2179           -14,45203 
 282,9              739,4               742,1588            713,2029            742,0143            713,345             713,2051           -2,758728 
 282,8              768,2               735,8878            713,1898            735,8053            713,2709            713,1913            32,31219 
 282,7              749,2               731,4804            713,1624            731,4343            713,2076            713,1634            17,7196 
 282,6              742                 728,3847            713,1444            728,3594            713,1691            713,145             13,6153 
 282,5              735,8               726,1768            713,1301            726,1631            713,1432            713,1305            9,62323 
 282,4              707,2               724,561             713,1188            724,5538            713,1257            713,119            -17,36096 
 282,3              700,2               723,3489            713,1217            723,3452            713,1252            713,1219           -23,14893 
 282,2              723,6               722,3989            713,1281            722,397             713,1299            713,1282            1,20105 
 282,1              707,6               721,6116            713,1229            721,6107            713,1238            713,123            -14,0116 
 282                711                 720,954             713,1257            720,9536            713,1261            713,1257           -9,954041 
 281,9              709,2               720,3834            713,1267            720,3832            713,1269            713,1267           -11,18341 
 281,8              709,2               719,8815            713,1287            719,8815            713,1287            713,1287           -10,68152 
 281,7              711,8               719,4341            713,1307            719,434             713,1307            713,1307           -7,634094 
 281,6              720,6               719,0298            713,1313            719,0298            713,1313            713,1313            1,570129 
 281,5              696,8               718,6595            713,1276            718,6595            713,1276            713,1276           -21,8595 
 281,4              701,6               718,3341            713,1357            718,3341            713,1357            713,1357           -16,73413 
 281,3              726                 718,0353            713,1415            718,0353            713,1415            713,1415            7,964661 
 281,2              701                 717,7503            713,1351            717,7503            713,1351            713,1351           -16,75031 
 281,1              709,6               717,5004            713,1411            717,5004            713,1411            713,1411           -7,900452 
 281                712                 717,2668            713,1429            717,2668            713,1429            713,1429           -4,123901 
 280,9              725,2 
 280,8              713,4 
 280,7              704,8 
 280,6              717,2 
 280,5              694,2 
 280,4              702,8 
 280,3              715,2 
 280,2              696,8 
 280,1              695 
 280                706,4 
