B.E.(eV)           Raw Intensity       Peak Sum            Background          2p1/2              Peak 2              Peak 3              Peak 4              2p3/2              difference
 810                5018,6 
 809,9              4999 
 809,8              4973,4 
 809,7              5039,2 
 809,6              4984,6 
 809,5              4991,4 
 809,4              4997 
 809,3              4976,8 
 809,2              4953,2 
 809,1              5004,8 
 809                4993 
 808,9              4963,4 
 808,8              4906,2 
 808,7              5033,6 
 808,6              4955 
 808,5              4886,6 
 808,4              4993,8 
 808,3              4986,4 
 808,2              4984,2 
 808,1              5007,8 
 808                5003,4 
 807,9              4979,6 
 807,8              4974,6 
 807,7              4969,2 
 807,6              4985,6 
 807,5              5008,8 
 807,4              4958,4 
 807,3              4937,4 
 807,2              4909,2 
 807,1              4931 
 807                4886,8 
 806,9              4959 
 806,8              4936 
 806,7              4966,8 
 806,6              4886,2 
 806,5              4932,6 
 806,4              4908,6 
 806,3              4937,6 
 806,2              4945,2 
 806,1              4908 
 806                4968 
 805,9              4952,6 
 805,8              4903,6 
 805,7              4935,4 
 805,6              4935 
 805,5              4938,6 
 805,4              4877,2 
 805,3              4908,8 
 805,2              4886,6 
 805,1              4816 
 805                4879,6              4895,812            4891,24             4895,099            4891,24             4891,24             4891,24             4891,953           -4,571777 
 804,9              4907,4              4894,349            4889,316            4893,629            4889,316            4889,316            4889,316            4890,036            13,05078 
 804,8              4966,6              4892,933            4887,392            4892,206            4887,392            4887,392            4887,392            4888,119            73,66748 
 804,7              4857,2              4891,564            4885,469            4890,831            4885,469            4885,469            4885,469            4886,202           -34,36426 
 804,6              4848,4              4890,248            4883,545            4889,508            4883,545            4883,545            4883,545            4884,285           -41,84814 
 804,5              4861                4888,987            4881,621            4888,239            4881,621            4881,621            4881,621            4882,369           -27,98682 
 804,4              4870                4887,785            4879,697            4887,03             4879,697            4879,697            4879,697            4880,452           -17,78467 
 804,3              4906,4              4886,646            4877,774            4885,885            4877,774            4877,774            4877,774            4878,536            19,75342 
 804,2              4869,2              4885,575            4875,85             4884,805            4875,85             4875,85             4875,85             4876,62            -16,37451 
 804,1              4851,6              4884,573            4873,926            4883,796            4873,926            4873,926            4873,926            4874,703           -32,97266 
 804                4905,4              4883,646            4872,002            4882,861            4872,002            4872,002            4872,002            4872,787            21,75439 
 803,9              4841,8              4882,795            4870,079            4882,003            4870,079            4870,079            4870,079            4870,871           -40,99512 
 803,8              4900,8              4882,028            4868,155            4881,229            4868,155            4868,155            4868,155            4868,955            18,77148 
 803,7              4827                4881,346            4866,231            4880,538            4866,231            4866,231            4866,231            4867,04            -54,34619 
 803,6              4892,6              4880,754            4864,308            4879,938            4864,308            4864,308            4864,308            4865,124            11,84619 
 803,5              4840                4880,253            4862,384            4879,429            4862,384            4862,384            4862,384            4863,208           -40,25342 
 803,4              4962,8              4879,85             4860,46             4879,017            4860,46             4860,46             4860,46             4861,292            82,9502 
 803,3              4790,6              4879,547            4858,537            4878,707            4858,537            4858,537            4858,537            4859,377           -88,94727 
 803,2              4897                4879,348            4856,613            4878,498            4856,613            4856,613            4856,613            4857,462            17,65234 
 803,1              4928,2              4879,256            4854,689            4878,397            4854,689            4854,689            4854,689            4855,547            48,94434 
 803                4927,2              4879,274            4852,765            4878,407            4852,765            4852,765            4852,765            4853,632            47,92578 
 802,9              4887,6              4879,408            4850,842            4878,532            4850,842            4850,842            4850,842            4851,718            8,191895 
 802,8              4818,8              4879,664            4848,918            4878,779            4848,918            4848,918            4848,918            4849,803           -60,86426 
 802,7              4903,4              4880,043            4846,994            4879,149            4846,994            4846,994            4846,994            4847,889            23,35645 
 802,6              4863,4              4880,557            4845,07             4879,653            4845,07             4845,07             4845,07             4845,974           -17,15674 
 802,5              4812,4              4881,208            4843,146            4880,295            4843,146            4843,146            4843,146            4844,06            -68,80859 
 802,4              4915,8              4882,01             4841,223            4881,086            4841,223            4841,223            4841,223            4842,146            33,79004 
 802,3              4852,8              4882,974            4839,299            4882,041            4839,299            4839,299            4839,299            4840,232           -30,17383 
 802,2              4874,8              4884,112            4837,375            4883,168            4837,375            4837,375            4837,375            4838,319           -9,312012 
 802,1              4832,4              4885,444            4835,452            4884,491            4835,452            4835,452            4835,452            4836,405           -53,04443 
 802                4872,8              4886,989            4833,528            4886,025            4833,528            4833,528            4833,528            4834,492           -14,18896 
 801,9              4913,2              4888,771            4831,604            4887,797            4831,604            4831,604            4831,604            4832,579            24,4292 
 801,8              4887,4              4890,823            4829,681            4889,838            4829,681            4829,681            4829,681            4830,666           -3,42334 
 801,7              4913,2              4893,174            4827,757            4892,178            4827,757            4827,757            4827,757            4828,753            20,02637 
 801,6              4916,8              4895,864            4825,833            4894,857            4825,833            4825,833            4825,833            4826,84             20,93555 
 801,5              4887,8              4898,932            4823,91             4897,914            4823,91             4823,91             4823,91             4824,928           -11,13184 
 801,4              4947,4              4902,422            4821,986            4901,393            4821,986            4821,986            4821,986            4823,016            44,97754 
 801,3              4893,6              4906,385            4820,062            4905,344            4820,062            4820,062            4820,062            4821,103           -12,78516 
 801,2              4960,2              4910,862            4818,138            4909,809            4818,138            4818,138            4818,138            4819,191            49,33789 
 801,1              4885,6              4915,905            4816,214            4914,84             4816,214            4816,214            4816,214            4817,279           -30,30518 
 801                4950,2              4921,55             4814,291            4920,473            4814,291            4814,291            4814,291            4815,368            28,6499 
 800,9              4948,8              4927,836            4812,367            4926,747            4812,367            4812,367            4812,367            4813,457            20,96338 
 800,8              4940,4              4934,797            4810,443            4933,694            4810,443            4810,443            4810,443            4811,546            5,603027 
 800,7              4970                4942,437            4808,52             4941,322            4808,52             4808,52             4808,52             4809,635            27,56299 
 800,6              4947                4950,771            4806,596            4949,643            4806,596            4806,596            4806,596            4807,725           -3,770996 
 800,5              4976,8              4959,769            4804,672            4958,627            4804,673            4804,672            4804,672            4805,814            17,03076 
 800,4              4958,2              4969,402            4802,749            4968,246            4802,749            4802,749            4802,749            4803,904           -11,20166 
 800,3              4994,6              4979,619            4800,825            4978,449            4800,825            4800,825            4800,825            4801,994            14,98096 
 800,2              4990,6              4990,325            4798,901            4989,142            4798,901            4798,901            4798,901            4800,084            0,2749023 
 800,1              5028,6              5001,433            4796,978            5000,235            4796,978            4796,978            4796,978            4798,175            27,16699 
 800                5007,4              5012,798            4795,054            5011,585            4795,054            4795,054            4795,054            4796,266           -5,398438 
 799,9              5000,4              5024,282            4793,13             5023,054            4793,131            4793,13             4793,13             4794,357           -23,88232 
 799,8              5036,4              5035,726            4791,206            5034,483            4791,207            4791,206            4791,206            4792,448            0,6738281 
 799,7              4997,8              5046,933            4789,283            5045,674            4789,284            4789,283            4789,283            4790,541           -49,13281 
 799,6              5064,4              5057,724            4787,359            5056,449            4787,36             4787,359            4787,359            4788,632            6,675781 
 799,5              5110,2              5067,887            4785,435            5066,596            4785,437            4785,435            4785,435            4786,725            42,31299 
 799,4              5055,2              5077,231            4783,511            5075,923            4783,513            4783,511            4783,511            4784,817           -22,03076 
 799,3              5002,6              5085,568            4781,587            5084,244            4781,59             4781,587            4781,587            4782,91            -82,96826 
 799,2              5050,4              5092,704            4779,664            5091,362            4779,667            4779,664            4779,664            4781,003           -42,3042 
 799,1              5082,8              5098,482            4777,74             5097,122            4777,744            4777,74             4777,74             4779,097           -15,68213 
 799                5111,8              5102,749            4775,816            5101,371            4775,82             4775,816            4775,816            4777,19             9,050781 
 798,9              5108,2              5105,393            4773,893            5103,997            4773,897            4773,893            4773,893            4775,285            2,807129 
 798,8              5097,8              5106,327            4771,969            5104,911            4771,974            4771,969            4771,969            4773,379           -8,526855 
 798,7              5087,6              5105,492            4770,045            5104,057            4770,052            4770,045            4770,045            4771,474           -17,8916 
 798,6              5077,6              5102,381            4768,122            5100,926            4768,129            4768,122            4768,122            4769,569           -24,78125 
 798,5              5069,6              5096,33             4766,198            5094,854            4766,206            4766,198            4766,198            4767,665           -26,72998 
 798,4              5093,6              5087,443            4764,274            5085,946            4764,284            4764,274            4764,274            4765,761            6,156738 
 798,3              5099,6              5075,897            4762,351            5074,378            4762,362            4762,351            4762,351            4763,858            23,70264 
 798,2              5067,2              5061,952            4760,427            5060,411            4760,44             4760,427            4760,427            4761,955            5,248047 
 798,1              5024                5045,896            4758,503            5044,332            4758,519            4758,503            4758,503            4760,052           -21,896 
 798                4987,4              5028,092            4756,579            5026,504            4756,597            4756,579            4756,579            4758,149           -40,69238 
 797,9              5000,4              5008,906            4754,655            5007,292            4754,676            4754,655            4754,655            4756,248           -8,505859 
 797,8              4965,6              4988,712            4752,732            4987,073            4752,756            4752,732            4752,732            4754,347           -23,1123 
 797,7              4961                4967,919            4750,808            4966,253            4750,836            4750,808            4750,808            4752,446           -6,919434 
 797,6              4856,8              4946,877            4748,884            4945,183            4748,917            4748,884            4748,885            4750,545           -90,07715 
 797,5              4973,8              4925,955            4746,96             4924,231            4746,998            4746,96             4746,961            4748,646            47,84521 
 797,4              4815,6              4905,453            4745,037            4903,7              4745,08             4745,037            4745,038            4746,746           -89,85303 
 797,3              4895,2              4885,633            4743,113            4883,848            4743,163            4743,114            4743,115            4744,847            9,567383 
 797,2              4863                4866,738            4741,189            4864,918            4741,246            4741,19             4741,192            4742,949           -3,737793 
 797,1              4881,2              4848,921            4739,266            4847,066            4739,33             4739,266            4739,27             4741,051            32,2793 
 797                4757                4832,329            4737,342            4830,437            4737,415            4737,342            4737,348            4739,154           -75,3291 
 796,9              4806,4              4817,032            4735,418            4815,099            4735,502            4735,419            4735,429            4737,258           -10,63232 
 796,8              4795,4              4803,057            4733,495            4801,079            4733,589            4733,495            4733,51             4735,362           -7,656738 
 796,7              4817,8              4790,419            4731,571            4788,391            4731,679            4731,572            4731,595            4733,466            27,38086 
 796,6              4772,8              4779,07             4729,647            4776,986            4729,769            4729,648            4729,683            4731,572           -6,270508 
 796,5              4756,4              4768,964            4727,723            4766,817            4727,861            4727,724            4727,777            4729,678           -12,56445 
 796,4              4718,4              4760,019            4725,8              4757,797            4725,955            4725,801            4725,879            4727,785           -41,61914 
 796,3              4721,6              4752,138            4723,876            4749,829            4724,051            4723,877            4723,992            4725,893           -30,5376 
 796,2              4718                4745,232            4721,952            4742,817            4722,149            4721,954            4722,12             4724,001           -27,23242 
 796,1              4698,2              4739,195            4720,028            4736,652            4720,249            4720,031            4720,267            4722,11            -40,99512 
 796                4695,6              4733,934            4718,105            4731,233            4718,352            4718,107            4718,441            4720,22            -38,33398 
 795,9              4723                4729,353            4716,181            4726,456            4716,457            4716,184            4716,65             4718,331           -6,353027 
 795,8              4694,8              4725,369            4714,257            4722,227            4714,565            4714,261            4714,903            4716,442           -30,56885 
 795,7              4700,2              4721,909            4712,333            4718,46             4712,677            4712,338            4713,212            4714,555           -21,7085 
 795,6              4747,2              4718,906            4710,41             4715,078            4710,792            4710,415            4711,593            4712,668            28,29395 
 795,5              4709,4              4716,312            4708,486            4712,011            4708,91             4708,492            4710,061            4710,784           -6,912109 
 795,4              4642,8              4714,083            4706,563            4709,201            4707,032            4706,569            4708,633            4708,899           -71,28369 
 795,3              4627,6              4712,192            4704,639            4706,596            4705,158            4704,646            4707,331            4707,016           -84,5918 
 795,2              4655                4710,614            4702,715            4704,153            4703,288            4702,724            4706,174            4705,134           -55,61426 
 795,1              4714,2              4709,338            4700,791            4701,839            4701,423            4700,802            4705,186            4703,253            4,861816 
 795                4714,4              4708,357            4698,868            4699,625            4699,563            4698,88             4704,387            4701,374            6,042969 
 794,9              4738                4707,666            4696,944            4697,485            4697,707            4696,958            4703,795            4699,496            30,33398 
 794,8              4720,2              4707,264            4695,02             4695,404            4695,857            4695,036            4703,427            4697,62             12,93604 
 794,7              4687,8              4707,146            4693,096            4693,366            4694,012            4693,115            4703,293            4695,745           -19,34668 
 794,6              4683,8              4707,311            4691,173            4691,361            4692,173            4691,194            4703,401            4693,873           -23,51074 
 794,5              4673,8              4707,739            4689,249            4689,379            4690,34             4689,273            4703,742            4692,001           -33,93896 
 794,4              4719,6              4708,416            4687,325            4687,414            4688,513            4687,354            4704,305            4690,132            11,18408 
 794,3              4671,6              4709,315            4685,401            4685,462            4686,692            4685,434            4705,067            4688,265           -37,71484 
 794,2              4767,2              4710,392            4683,478            4683,518            4684,878            4683,514            4705,991            4686,4              56,80811 
 794,1              4745                4711,604            4681,554            4681,581            4683,072            4681,596            4707,034            4684,539            33,39551 
 794                4689,6              4712,889            4679,63             4679,648            4681,271            4679,678            4708,133            4682,68            -23,28857 
 793,9              4682,4              4714,179            4677,707            4677,718            4679,479            4677,76             4709,225            4680,823           -31,77881 
 793,8              4736,8              4715,404            4675,783            4675,791            4677,694            4675,844            4710,236            4678,971            21,39551 
 793,7              4675,8              4716,482            4673,859            4673,864            4675,917            4673,928            4711,087            4677,122           -40,68213 
 793,6              4758,6              4717,335            4671,936            4671,938            4674,149            4672,013            4711,7              4675,277            41,26465 
 793,5              4742,8              4717,888            4670,012            4670,014            4672,389            4670,099            4711,997            4673,436            24,91211 
 793,4              4769,8              4718,071            4668,088            4668,089            4670,639            4668,186            4711,907            4671,601            51,729 
 793,3              4738,2              4717,826            4666,164            4666,165            4668,899            4666,274            4711,373            4669,771            20,37402 
 793,2              4728,2              4717,108            4664,241            4664,241            4667,171            4664,364            4710,347            4667,947            11,09229 
 793,1              4691,6              4715,888            4662,317            4662,317            4665,456            4662,455            4708,798            4666,129           -24,2876 
 793                4685,4              4714,153            4660,393            4660,393            4663,753            4660,547            4706,713            4664,319           -28,75293 
 792,9              4688                4711,914            4658,469            4658,469            4662,065            4658,641            4704,098            4662,517           -23,91357 
 792,8              4694,6              4709,197            4656,546            4656,546            4660,396            4656,737            4700,977            4660,725           -14,59717 
 792,7              4694,4              4706,045            4654,622            4654,622            4658,745            4654,834            4697,39             4658,942           -11,64551 
 792,6              4692,8              4702,516            4652,698            4652,698            4657,116            4652,933            4693,391            4657,171           -9,716309 
 792,5              4666,6              4698,683            4650,774            4650,774            4655,511            4651,034            4689,049            4655,412           -32,08301 
 792,4              4660,6              4694,622            4648,851            4648,851            4653,933            4649,137            4684,437            4653,667           -34,02197 
 792,3              4659,8              4690,417            4646,927            4646,927            4652,385            4647,243            4679,632            4651,938           -30,6167 
 792,2              4679,2              4686,152            4645,003            4645,003            4650,87             4645,351            4674,717            4650,225           -6,952148 
 792,1              4664,8              4681,908            4643,08             4643,08             4649,392            4643,461            4669,763            4648,531           -17,10791 
 792                4661,6              4677,759            4641,156            4641,156            4647,951            4641,574            4664,844            4646,857           -16,15918 
 791,9              4711,6              4673,772            4639,232            4639,232            4646,552            4639,69             4660,02             4645,207            37,82764 
 791,8              4648,4              4670,001            4637,309            4637,309            4645,197            4637,809            4655,339            4643,582           -21,60107 
 791,7              4744,6              4666,491            4635,385            4635,385            4643,884            4635,93             4650,846            4641,985            78,10889 
 791,6              4661,6              4663,271            4633,461            4633,461            4642,616            4634,055            4646,565            4640,418           -1,671387 
 791,5              4621                4660,364            4631,537            4631,537            4641,39             4632,183            4642,517            4638,886           -39,36426 
 791,4              4661,4              4657,777            4629,614            4629,614            4640,206            4630,314            4638,708            4637,391            3,622559 
 791,3              4599,8              4655,508            4627,69             4627,69             4639,058            4628,449            4635,135            4635,936           -55,7085 
 791,2              4688,8              4653,547            4625,766            4625,766            4637,941            4626,586            4631,792            4634,525            35,25293 
 791,1              4651,4              4651,879            4623,842            4623,842            4636,851            4624,729            4628,663            4633,165           -0,4794922 
 791                4645,2              4650,481            4621,918            4621,918            4635,776            4622,874            4625,73             4631,856           -5,28125 
 790,9              4616,6              4649,33             4619,995            4619,995            4634,71             4621,024            4622,975            4630,606           -32,72998 
 790,8              4642,6              4648,398            4618,071            4618,071            4633,641            4619,178            4620,374            4629,419           -5,797852 
 790,7              4643,6              4647,657            4616,147            4616,147            4632,557            4617,336            4617,906            4628,3             -4,057129 
 790,6              4670,8              4647,082            4614,224            4614,224            4631,445            4615,5              4615,552            4627,256            23,71777 
 790,5              4668,8              4646,645            4612,3              4612,3              4630,294            4613,667            4613,291            4626,292            22,15479 
 790,4              4636,4              4646,326            4610,376            4610,376            4629,091            4611,842            4611,108            4625,415           -9,92627 
 790,3              4667,8              4646,104            4608,453            4608,453            4627,823            4610,022            4608,986            4624,632            21,69531 
 790,2              4630,6              4645,961            4606,529            4606,529            4626,478            4608,208            4606,914            4623,948           -15,36133 
 790,1              4650,2              4645,887            4604,605            4604,605            4625,045            4606,403            4604,879            4623,374            4,313477 
 790                4647                4645,868            4602,682            4602,682            4623,517            4604,606            4602,875            4622,915            1,132324 
 789,9              4713,8              4645,901            4600,758            4600,758            4621,884            4602,819            4600,892            4622,579            67,89893 
 789,8              4565,4              4645,985            4598,834            4598,834            4620,142            4601,043            4598,927            4622,375           -80,58496 
 789,7              4624,4              4646,12             4596,91             4596,91             4618,287            4599,278            4596,973            4622,312           -21,71973 
 789,6              4594,2              4646,281            4594,986            4594,986            4616,286            4597,527            4595,029            4622,398           -52,08057 
 789,5              4639,8              4646,433            4593,063            4593,063            4614,097            4595,792            4593,091            4622,642           -6,633301 
 789,4              4660                4646,591            4591,139            4591,139            4611,726            4594,073            4591,158            4623,052            13,40869 
 789,3              4644,6              4646,778            4589,215            4589,215            4609,185            4592,372            4589,228            4623,64            -2,178223 
 789,2              4626                4647,017            4587,292            4587,292            4606,49             4590,689            4587,299            4624,413           -21,01709 
 789,1              4680,2              4647,34             4585,368            4585,368            4603,661            4589,028            4585,373            4625,382            32,86035 
 789                4658,4              4647,775            4583,444            4583,444            4600,72             4587,388            4583,447            4626,553            10,62451 
 788,9              4620,2              4648,359            4581,521            4581,521            4597,689            4585,77             4581,522            4627,938           -28,15869 
 788,8              4632,2              4649,125            4579,597            4579,597            4594,595            4584,174            4579,598            4629,549           -16,92529 
 788,7              4670,4              4650,104            4577,673            4577,673            4591,461            4582,6              4577,673            4631,389            20,29541 
 788,6              4698,8              4651,333            4575,75             4575,75             4588,313            4581,046            4575,75             4633,473            47,4668 
 788,5              4714                4652,835            4573,826            4573,826            4585,171            4579,51             4573,826            4635,806            61,16455 
 788,4              4704,6              4654,64             4571,902            4571,902            4582,056            4577,99             4571,902            4638,397            49,96045 
 788,3              4692,8              4656,772            4569,978            4569,978            4578,985            4576,482            4569,978            4641,261            36,02734 
 788,2              4707,8              4659,249            4568,055            4568,055            4575,973            4574,984            4568,055            4644,401            48,55078 
 788,1              4704,2              4662,09             4566,131            4566,131            4573,03             4573,489            4566,131            4647,833            42,10986 
 788                4719,8              4665,303            4564,207            4564,207            4570,165            4571,992            4564,207            4651,56             54,49707 
 787,9              4673,2              4668,902            4562,283            4562,283            4567,383            4570,488            4562,283            4655,598            4,29834 
 787,8              4652,8              4672,898            4560,359            4560,359            4564,685            4568,97             4560,359            4659,962           -20,09863 
 787,7              4643                4677,295            4558,436            4558,436            4562,073            4567,433            4558,436            4664,661           -34,29492 
 787,6              4774,8              4682,105            4556,512            4556,512            4559,542            4565,87             4556,512            4669,718            92,69434 
 787,5              4683,8              4687,331            4554,588            4554,588            4557,09             4564,273            4554,588            4675,144           -3,53125 
 787,4              4688                4692,987            4552,665            4552,665            4554,712            4562,639            4552,665            4680,965           -4,987305 
 787,3              4727,6              4699,095            4550,741            4550,741            4552,402            4560,961            4550,741            4687,214            28,50488 
 787,2              4717,2              4705,665            4548,817            4548,817            4550,153            4559,235            4548,817            4693,911            11,53564 
 787,1              4692,4              4712,729            4546,894            4546,894            4547,958            4557,457            4546,894            4701,102           -20,32959 
 787                4748,8              4720,313            4544,97             4544,97             4545,81             4555,624            4544,97             4708,818            28,4873 
 786,9              4710,6              4728,457            4543,046            4543,046            4543,704            4553,734            4543,046            4717,11            -17,85645 
 786,8              4716,6              4737,201            4541,123            4541,123            4541,633            4551,772            4541,123            4726,041           -20,60059 
 786,7              4703,6              4746,561            4539,199            4539,199            4539,591            4549,716            4539,199            4735,651           -42,96045 
 786,6              4775,4              4756,613            4537,275            4537,275            4537,574            4547,568            4537,275            4746,021            18,78711 
 786,5              4745,6              4767,411            4535,351            4535,351            4535,577            4545,336            4535,351            4757,201           -21,81104 
 786,4              4727,8              4779,036            4533,427            4533,427            4533,596            4543,027            4533,427            4769,268           -51,23633 
 786,3              4799                4791,572            4531,504            4531,504            4531,629            4540,65             4531,504            4782,301            7,427734 
 786,2              4761                4805,079            4529,58             4529,58             4529,672            4538,218            4529,58             4796,349           -44,07861 
 786,1              4795,4              4819,646            4527,656            4527,656            4527,723            4535,74             4527,656            4811,495           -24,24561 
 786                4818,4              4835,32             4525,732            4525,732            4525,781            4533,231            4525,732            4827,772           -16,91992 
 785,9              4812,6              4852,166            4523,809            4523,809            4523,843            4530,703            4523,809            4845,237           -39,56592 
 785,8              4841,4              4870,237            4521,885            4521,885            4521,91             4528,167            4521,885            4863,931           -28,8374 
 785,7              4855                4889,53             4519,961            4519,961            4519,979            4525,634            4519,961            4883,84            -34,53027 
 785,6              4856,6              4910,073            4518,038            4518,038            4518,05             4523,114            4518,038            4904,984           -53,47266 
 785,5              4883                4931,813            4516,114            4516,114            4516,122            4520,617            4516,114            4927,301           -48,8125 
 785,4              5004                4954,714            4514,19             4514,19             4514,196            4518,15             4514,19             4950,749            49,28564 
 785,3              4953                4978,712            4512,267            4512,267            4512,271            4515,716            4512,267            4975,259           -25,7124 
 785,2              5028,6              5003,668            4510,343            4510,343            4510,345            4513,322            4510,343            5000,687            24,93213 
 785,1              4969,2              5029,475            4508,419            4508,419            4508,421            4510,968            4508,419            5026,923           -60,27441 
 785                5036,8              5055,928            4506,495            4506,495            4506,496            4508,658            4506,495            5053,765           -19,12842 
 784,9              5021,4              5082,845            4504,572            4504,572            4504,573            4506,39             4504,572            5081,026           -61,44531 
 784,8              5076                5110,007            4502,648            4502,648            4502,648            4504,163            4502,648            5108,492           -34,00684 
 784,7              5086,6              5137,11             4500,724            4500,724            4500,725            4501,975            4500,724            5135,858           -50,50977 
 784,6              5140,4              5163,879            4498,8              4498,8              4498,8              4499,824            4498,8              5162,855           -23,47949 
 784,5              5145,8              5189,931            4496,877            4496,877            4496,877            4497,708            4496,877            5189,1             -44,13086 
 784,4              5143,6              5214,88             4494,953            4494,953            4494,953            4495,621            4494,953            5214,213           -71,28027 
 784,3              5209,4              5238,295            4493,029            4493,029            4493,029            4493,561            4493,029            5237,764           -28,89551 
 784,2              5260,6              5259,645            4491,105            4491,105            4491,105            4491,525            4491,105            5259,225            0,9555664 
 784,1              5334,2              5278,419            4489,182            4489,182            4489,182            4489,51             4489,182            5278,09             55,78125 
 784                5288,2              5294,036            4487,258            4487,258            4487,258            4487,513            4487,258            5293,781           -5,835938 
 783,9              5335,6              5305,97             4485,334            4485,334            4485,334            4485,531            4485,334            5305,774            29,62988 
 783,8              5340,8              5313,747            4483,411            4483,411            4483,411            4483,56             4483,411            5313,598            27,05273 
 783,7              5383,8              5316,991            4481,487            4481,487            4481,487            4481,6              4481,487            5316,878            66,80908 
 783,6              5334,2              5315,28             4479,563            4479,563            4479,563            4479,648            4479,563            5315,195            18,92041 
 783,5              5330,6              5306,584            4477,64             4477,64             4477,64             4477,702            4477,64             5306,522            24,01563 
 783,4              5270,8              5290,674            4475,716            4475,716            4475,716            4475,762            4475,716            5290,628           -19,87402 
 783,3              5264,8              5268,04             4473,792            4473,792            4473,792            4473,826            4473,792            5268,006           -3,239746 
 783,2              5276                5239,413            4471,868            4471,868            4471,868            4471,893            4471,868            5239,389            36,58691 
 783,1              5248,2              5205,611            4469,945            4469,945            4469,945            4469,962            4469,945            5205,594            42,58936 
 783                5174                5167,597            4468,021            4468,021            4468,021            4468,033            4468,021            5167,584            6,40332 
 782,9              5211,6              5126,299            4466,097            4466,097            4466,097            4466,106            4466,097            5126,291            85,30078 
 782,8              5080,6              5082,62             4464,173            4464,173            4464,173            4464,179            4464,173            5082,614           -2,019531 
 782,7              5028,4              5037,491            4462,25             4462,25             4462,25             4462,254            4462,25             5037,487           -9,091309 
 782,6              4992,2              4991,674            4460,326            4460,326            4460,326            4460,329            4460,326            4991,671            0,5263672 
 782,5              4961,4              4945,955            4458,402            4458,402            4458,402            4458,404            4458,402            4945,953            15,44531 
 782,4              4907,6              4900,953            4456,479            4456,479            4456,479            4456,48             4456,479            4900,952            6,646973 
 782,3              4886,2              4857,2              4454,555            4454,555            4454,555            4454,556            4454,555            4857,199            29,00049 
 782,2              4789                4815,209            4452,631            4452,631            4452,631            4452,632            4452,631            4815,208           -26,20898 
 782,1              4798,4              4775,303            4450,708            4450,708            4450,708            4450,708            4450,708            4775,302            23,09717 
 782                4744,6              4737,808            4448,784            4448,784            4448,784            4448,784            4448,784            4737,808            6,791992 
 781,9              4742,2              4702,897            4446,86             4446,86             4446,86             4446,86             4446,86             4702,897            39,30322 
 781,8              4693,2              4670,667            4444,936            4444,936            4444,936            4444,936            4444,936            4670,667            22,53271 
 781,7              4686,4              4641,201            4443,013            4443,013            4443,013            4443,013            4443,013            4641,201            45,19873 
 781,6              4607                4614,443            4441,089            4441,089            4441,089            4441,089            4441,089            4614,443           -7,443359 
 781,5              4606,4              4590,353            4439,165            4439,165            4439,165            4439,165            4439,165            4590,353            16,04736 
 781,4              4574                4568,796            4437,241            4437,241            4437,241            4437,241            4437,241            4568,796            5,204102 
 781,3              4573,4              4549,613            4435,317            4435,317            4435,317            4435,317            4435,317            4549,613            23,78662 
 781,2              4583,6              4532,651            4433,394            4433,394            4433,394            4433,394            4433,394            4532,651            50,94873 
 781,1              4582,8              4517,702            4431,47             4431,47             4431,47             4431,47             4431,47             4517,702            65,09814 
 781                4485                4504,583            4429,546            4429,546            4429,546            4429,546            4429,546            4504,583           -19,58252 
 780,9              4505,8              4493,088            4427,623            4427,623            4427,623            4427,623            4427,623            4493,088            12,71191 
 780,8              4508,8              4483,021            4425,699            4425,699            4425,699            4425,699            4425,699            4483,021            25,77881 
 780,7              4487,4              4474,208            4423,775            4423,775            4423,775            4423,775            4423,775            4474,208            13,19189 
 780,6              4506                4466,469            4421,852            4421,852            4421,852            4421,852            4421,852            4466,469            39,53125 
 780,5              4456,8              4459,655            4419,928            4419,928            4419,928            4419,928            4419,928            4459,655           -2,85498 
 780,4              4463                4453,621            4418,004            4418,004            4418,004            4418,004            4418,004            4453,621            9,379395 
 780,3              4460,8              4448,241            4416,081            4416,081            4416,081            4416,081            4416,081            4448,241            12,55908 
 780,2              4421,8              4443,41             4414,157            4414,157            4414,157            4414,157            4414,157            4443,41            -21,60986 
 780,1              4446,6              4439,03             4412,233            4412,233            4412,233            4412,233            4412,233            4439,03             7,570313 
 780                4330,6              4435,025            4410,309            4410,309            4410,309            4410,309            4410,309            4435,025           -104,4248 
 779,9              4479,6              4431,326            4408,386            4408,386            4408,386            4408,386            4408,386            4431,326            48,27393 
 779,8              4464,6              4427,876            4406,462            4406,462            4406,462            4406,462            4406,462            4427,876            36,72412 
 779,7              4423,8              4424,63             4404,538            4404,538            4404,538            4404,538            4404,538            4424,63            -0,8305664 
 779,6              4418,8              4421,551            4402,614            4402,614            4402,614            4402,614            4402,614            4421,551           -2,750977 
 779,5              4402,2              4418,608            4400,69             4400,69             4400,69             4400,69             4400,69             4418,608           -16,40771 
 779,4              4357,8              4415,776            4398,767            4398,767            4398,767            4398,767            4398,767            4415,776           -57,97656 
 779,3              4368,8              4413,036            4396,843            4396,843            4396,843            4396,843            4396,843            4413,036           -44,23584 
 779,2              4438,4              4410,372            4394,919            4394,919            4394,919            4394,919            4394,919            4410,372            28,02832 
 779,1              4387,2              4407,771            4392,996            4392,996            4392,996            4392,996            4392,996            4407,771           -20,57031 
 779                4372                4405,225            4391,072            4391,072            4391,072            4391,072            4391,072            4405,225           -33,22461 
 778,9              4409,4              4402,725            4389,148            4389,148            4389,148            4389,148            4389,148            4402,725            6,675293 
 778,8              4379,6              4400,264            4387,225            4387,225            4387,225            4387,225            4387,225            4400,264           -20,66357 
 778,7              4427,8              4397,838            4385,301            4385,301            4385,301            4385,301            4385,301            4397,838            29,96143 
 778,6              4419,6              4395,443            4383,377            4383,377            4383,377            4383,377            4383,377            4395,443            24,15674 
 778,5              4357                4393,077            4381,454            4381,454            4381,454            4381,454            4381,454            4393,077           -36,07715 
 778,4              4366,8              4390,736            4379,53             4379,53             4379,53             4379,53             4379,53             4390,736           -23,93604 
 778,3              4360,8              4388,417            4377,606            4377,606            4377,606            4377,606            4377,606            4388,417           -27,6167 
 778,2              4421,8              4386,119            4375,682            4375,682            4375,682            4375,682            4375,682            4386,119            35,68115 
 778,1              4314,2              4383,84             4373,759            4373,759            4373,759            4373,759            4373,759            4383,84            -69,64014 
 778                4377,4              4381,579            4371,835            4371,835            4371,835            4371,835            4371,835            4381,579           -4,179199 
 777,9              4379                4379,335            4369,911            4369,911            4369,911            4369,911            4369,911            4379,335           -0,3349609 
 777,8              4399,6              4377,106            4367,987            4367,987            4367,987            4367,987            4367,987            4377,106            22,49414 
 777,7              4360,8              4374,892            4366,063            4366,063            4366,063            4366,063            4366,063            4374,892           -14,0918 
 777,6              4409,2              4372,69             4364,14             4364,14             4364,14             4364,14             4364,14             4372,69             36,50977 
 777,5              4376,8              4370,503            4362,216            4362,216            4362,216            4362,216            4362,216            4370,503            6,296875 
 777,4              4367,6              4368,327            4360,292            4360,292            4360,292            4360,292            4360,292            4368,327           -0,7265625 
 777,3              4401,8              4366,161            4358,369            4358,369            4358,369            4358,369            4358,369            4366,161            35,63867 
 777,2              4384,8              4364,007            4356,445            4356,445            4356,445            4356,445            4356,445            4364,007            20,79297 
 777,1              4320                4361,863            4354,521            4354,521            4354,521            4354,521            4354,521            4361,863           -41,86279 
 777                4339,8              4359,728            4352,598            4352,598            4352,598            4352,598            4352,598            4359,728           -19,92773 
 776,9              4410                4357,602            4350,674            4350,674            4350,674            4350,674            4350,674            4357,602            52,39844 
 776,8              4396                4355,483            4348,75             4348,75             4348,75             4348,75             4348,75             4355,483            40,5166 
 776,7              4314,8              4353,374            4346,826            4346,826            4346,826            4346,826            4346,826            4353,374           -38,57373 
 776,6              4374,2              4351,271            4344,903            4344,903            4344,903            4344,903            4344,903            4351,271            22,92871 
 776,5              4300,6              4349,176            4342,979            4342,979            4342,979            4342,979            4342,979            4349,176           -48,57617 
 776,4              4340,8              4347,088            4341,055            4341,055            4341,055            4341,055            4341,055            4347,088           -6,288086 
 776,3              4395,4              4345,006            4339,131            4339,131            4339,131            4339,131            4339,131            4345,006            50,39404 
 776,2              4368,4              4342,93             4337,208            4337,208            4337,208            4337,208            4337,208            4342,93             25,46973 
 776,1              4310,6              4340,86             4335,284            4335,284            4335,284            4335,284            4335,284            4340,86            -30,25977 
 776                4326                4338,795            4333,36             4333,36             4333,36             4333,36             4333,36             4338,795           -5,435059 
 775,9              4318,6 
 775,8              4343,2 
 775,7              4345,8 
 775,6              4313,8 
 775,5              4315,8 
 775,4              4339,8 
 775,3              4316,8 
 775,2              4313 
 775,1              4367,8 
 775                4344,6 
 774,9              4311,4 
 774,8              4316,8 
 774,7              4272 
 774,6              4326,4 
 774,5              4289,8 
 774,4              4278 
 774,3              4311,6 
 774,2              4327,2 
 774,1              4281,4 
 774                4266,4 
 773,9              4281,6 
 773,8              4296,8 
 773,7              4281,2 
 773,6              4247,6 
 773,5              4216,2 
 773,4              4199,4 
 773,3              4222,4 
 773,2              4181,4 
 773,1              4266,2 
 773                4207,4 
 772,9              4152,6 
 772,8              4180 
 772,7              4190,6 
 772,6              4148,8 
 772,5              4152,2 
 772,4              4104,8 
 772,3              4153,2 
 772,2              4072 
 772,1              4035,2 
 772                4090,4 
 771,9              4096,6 
 771,8              4068,6 
 771,7              4040,2 
 771,6              4039,2 
 771,5              4011 
 771,4              4016,8 
 771,3              4039,2 
 771,2              4012,6 
 771,1              3983,6 
 771                3987 
 770,9              3959,2 
 770,8              3988,4 
 770,7              3972 
 770,6              3972,2 
 770,5              3932,8 
 770,4              3909,6 
 770,3              3968,4 
 770,2              3937,6 
 770,1              3916,2 
 770                3915,8 
 769,9              3906,2 
 769,8              3917,4 
 769,7              3925,8 
 769,6              3898,8 
 769,5              3889 
 769,4              3871 
 769,3              3883,4 
 769,2              3822,2 
 769,1              3905,6 
 769                3881,4 
 768,9              3940,6 
 768,8              3924,4 
 768,7              3876,6 
 768,6              3951 
 768,5              3873,6 
 768,4              3925 
 768,3              3901,6 
 768,2              3902,4 
 768,1              3924,2 
 768                3940,2 
 767,9              3962,2 
 767,8              3932,4 
 767,7              3877 
 767,6              3854,6 
 767,5              3870 
 767,4              3916,2 
 767,3              3842,6 
 767,2              3858,8 
 767,1              3843,4 
 767                3867,6 
 766,9              3847,4 
 766,8              3836,8 
 766,7              3834,2 
 766,6              3771,8 
 766,5              3818,8 
 766,4              3847,4 
 766,3              3834,6 
 766,2              3848,2 
 766,1              3834,6 
 766                3852,4 
 765,9              3823,2 
 765,8              3770 
 765,7              3828,6 
 765,6              3818 
 765,5              3822,8 
 765,4              3813,4 
 765,3              3794,4 
 765,2              3825,2 
 765,1              3779,4 
 765                3804,2 
 764,9              3791,6 
 764,8              3742,6 
 764,7              3763,4 
 764,6              3788,4 
 764,5              3763,2 
 764,4              3747,6 
 764,3              3725,8 
 764,2              3741,4 
 764,1              3756,8 
 764                3775,8 
 763,9              3744,6 
 763,8              3782,2 
 763,7              3735,4 
 763,6              3727,8 
 763,5              3762 
 763,4              3793 
 763,3              3703 
 763,2              3770,2 
 763,1              3697,2 
 763                3704,2 
 762,9              3735 
 762,8              3761,2 
 762,7              3723,2 
 762,6              3701,8 
 762,5              3705,8 
 762,4              3744,4 
 762,3              3739,8 
 762,2              3707,2 
 762,1              3762,6 
 762                3685,8 
 761,9              3675,4 
 761,8              3734,2 
 761,7              3698,8 
 761,6              3716,8 
 761,5              3693,8 
 761,4              3699,4 
 761,3              3668,6 
 761,2              3724,2 
 761,1              3727,6 
 761                3676,4 
 760,9              3707,6 
 760,8              3681,2 
 760,7              3668 
 760,6              3651,2 
 760,5              3676,6 
 760,4              3648,4 
 760,3              3702,6 
 760,2              3708 
 760,1              3690,6 
 760                3697,6 
