B.E.(eV)           Raw Intensity       Peak Sum            Background          2p1/2              2p3/2              2p1/2              2p3/2              difference
 925                13475,4 
 924,9              13453 
 924,8              13515,6 
 924,7              13448,8 
 924,6              13424,2 
 924,5              13410,6 
 924,4              13438,4 
 924,3              13316,6 
 924,2              13285,6 
 924,1              13408,6 
 924                13420,6 
 923,9              13397,4 
 923,8              13443 
 923,7              13393 
 923,6              13488 
 923,5              13362 
 923,4              13325,2 
 923,3              13339,8 
 923,2              13306,4 
 923,1              13377 
 923                13410,8 
 922,9              13346,8 
 922,8              13374 
 922,7              13347,8 
 922,6              13427,4 
 922,5              13368 
 922,4              13312,2 
 922,3              13411,8 
 922,2              13353,6 
 922,1              13388,2 
 922                13354 
 921,9              13282,4 
 921,8              13384,6 
 921,7              13246 
 921,6              13239,2 
 921,5              13396,8 
 921,4              13349,4 
 921,3              13352 
 921,2              13430,6 
 921,1              13361,6 
 921                13356,6 
 920,9              13337,8 
 920,8              13246,4 
 920,7              13341,6 
 920,6              13461 
 920,5              13381,4 
 920,4              13327,6 
 920,3              13240,8 
 920,2              13282,4 
 920,1              13339,2 
 920                13247,8 
 919,9              13263,2 
 919,8              13260,6 
 919,7              13332,4 
 919,6              13405 
 919,5              13238,8 
 919,4              13331,8 
 919,3              13248 
 919,2              13358,6 
 919,1              13402 
 919                13404,8 
 918,9              13336,8 
 918,8              13344,6 
 918,7              13305,6 
 918,6              13224,4 
 918,5              13132 
 918,4              13231,6 
 918,3              13314 
 918,2              13388,2 
 918,1              13122,8 
 918                13277 
 917,9              13380,4 
 917,8              13282 
 917,7              13282,6 
 917,6              13301,2 
 917,5              13327,6 
 917,4              13213,4 
 917,3              13319 
 917,2              13185,2 
 917,1              13307,4 
 917                13203,8 
 916,9              13310,6 
 916,8              13288,4 
 916,7              13169,4 
 916,6              13274,2 
 916,5              13256 
 916,4              13216,4 
 916,3              13300,4 
 916,2              13359,6 
 916,1              13194,4 
 916                13277,2 
 915,9              13271 
 915,8              13267,2 
 915,7              13295,4 
 915,6              13302,2 
 915,5              13231 
 915,4              13277,6 
 915,3              13292,8 
 915,2              13260 
 915,1              13256,8 
 915                13278,8 
 914,9              13232,8 
 914,8              13275,2 
 914,7              13285,8 
 914,6              13176,2 
 914,5              13193,8 
 914,4              13315,2 
 914,3              13288,6 
 914,2              13229,6 
 914,1              13410,8 
 914                13298,8 
 913,9              13271,8 
 913,8              13303,4 
 913,7              13271,8 
 913,6              13210,2 
 913,5              13264,2 
 913,4              13264,8 
 913,3              13254 
 913,2              13219 
 913,1              13255,6 
 913                13458,6 
 912,9              13373,2 
 912,8              13284,2 
 912,7              13259,6 
 912,6              13298,8 
 912,5              13482,6 
 912,4              13344,8 
 912,3              13373,4 
 912,2              13431,4 
 912,1              13307,4 
 912                13450 
 911,9              13456,8 
 911,8              13454,6 
 911,7              13386,2 
 911,6              13367,8 
 911,5              13441,4 
 911,4              13383,2 
 911,3              13326,4 
 911,2              13420,8 
 911,1              13273,4 
 911                13432 
 910,9              13314,2 
 910,8              13395,2 
 910,7              13484,4 
 910,6              13363,2 
 910,5              13380,2 
 910,4              13466,4 
 910,3              13407 
 910,2              13455,8 
 910,1              13411,6 
 910                13559,8 
 909,9              13409,4 
 909,8              13398,4 
 909,7              13441 
 909,6              13517,2 
 909,5              13427,8 
 909,4              13424,2 
 909,3              13509,4 
 909,2              13486,2 
 909,1              13429,8 
 909                13495 
 908,9              13392,6 
 908,8              13460,2 
 908,7              13563,4 
 908,6              13505,2 
 908,5              13493,8 
 908,4              13571,2 
 908,3              13505,6 
 908,2              13542,6 
 908,1              13536 
 908                13479,2 
 907,9              13489,6 
 907,8              13424,4 
 907,7              13608,6 
 907,6              13571,6 
 907,5              13581,2 
 907,4              13569,2 
 907,3              13531,6 
 907,2              13547,4 
 907,1              13610,4 
 907                13463,4 
 906,9              13468,2 
 906,8              13551,2 
 906,7              13437,6 
 906,6              13506,4 
 906,5              13521,8 
 906,4              13515,6 
 906,3              13580 
 906,2              13556,8 
 906,1              13507,8 
 906                13547,2 
 905,9              13406 
 905,8              13455,6 
 905,7              13517 
 905,6              13519 
 905,5              13433,8 
 905,4              13541,2 
 905,3              13479,4 
 905,2              13441,4 
 905,1              13518,4 
 905                13358,6 
 904,9              13402,8 
 904,8              13392,2 
 904,7              13450 
 904,6              13340,4 
 904,5              13450,8 
 904,4              13380,6 
 904,3              13433,6 
 904,2              13417,8 
 904,1              13539,6 
 904                13429,8 
 903,9              13467,2 
 903,8              13340,6 
 903,7              13353,6 
 903,6              13427,8 
 903,5              13341,2 
 903,4              13389,4 
 903,3              13540,2 
 903,2              13410,2 
 903,1              13378,4 
 903                13506,6 
 902,9              13329,4 
 902,8              13411,4 
 902,7              13386,6 
 902,6              13492,2 
 902,5              13390,2 
 902,4              13339,4 
 902,3              13361,2 
 902,2              13370,6 
 902,1              13253,4 
 902                13384,8 
 901,9              13377,2 
 901,8              13402,4 
 901,7              13391,2 
 901,6              13325,4 
 901,5              13397 
 901,4              13314,4 
 901,3              13240,6 
 901,2              13269,4 
 901,1              13300,4 
 901                13303,8 
 900,9              13314,6 
 900,8              13325,4 
 900,7              13307,6 
 900,6              13182,4 
 900,5              13268 
 900,4              13271 
 900,3              13237,4 
 900,2              13294,4 
 900,1              13136,4 
 900                13191,8 
 899,9              13126 
 899,8              13222,2 
 899,7              13230,8 
 899,6              13156,8 
 899,5              13140,8 
 899,4              13154 
 899,3              13167,2 
 899,2              13037,6 
 899,1              13131,2 
 899                13097,2 
 898,9              13147 
 898,8              12987,8 
 898,7              13031 
 898,6              12996,2 
 898,5              12997,2 
 898,4              12963,6 
 898,3              13036,6 
 898,2              12929,4 
 898,1              13014,6 
 898                12158,2 
 897,9              12845,4 
 897,8              12942,6 
 897,7              12969,6 
 897,6              12920,2 
 897,5              12978,2 
 897,4              12866,6 
 897,3              12898,6 
 897,2              12813,8 
 897,1              12812,2 
 897                12772,8 
 896,9              12763 
 896,8              12816 
 896,7              12864 
 896,6              12787,2 
 896,5              12777,4 
 896,4              12791,8 
 896,3              12802,4 
 896,2              12737,8 
 896,1              12813,8 
 896                12714,2 
 895,9              12692,8 
 895,8              12764,4 
 895,7              12781,2 
 895,6              12698 
 895,5              12659,2 
 895,4              12709,2 
 895,3              12613,4 
 895,2              12718,4 
 895,1              12580,2 
 895                12579,6             12580,61            12577,6             12578,09            12578,09            12579,62            12577,6            -1,005859 
 894,9              12695,6             12578,68            12575,59            12576,14            12576,09            12577,63            12575,59            116,9238 
 894,8              12612,2             12576,3             12573,14            12573,75            12573,64            12575,18            12573,14            35,89746 
 894,7              12562               12574,25            12570,99            12571,67            12571,5             12573,05            12570,99           -12,24512 
 894,6              12660,6             12572,38            12569,02            12569,79            12569,54            12571,09            12569,02            88,2207 
 894,5              12617,8             12570,14            12566,67            12567,53            12567,19            12568,76            12566,67            47,66113 
 894,4              12538               12568,06            12564,48            12565,43            12565,01            12566,58            12564,48           -30,06152 
 894,3              12587,6             12566,29            12562,58            12563,64            12563,11            12564,69            12562,58            21,30957 
 894,2              12529,4             12564,33            12560,48            12561,67            12561,02            12562,61            12560,48           -34,93359 
 894,1              12650,4             12562,6             12558,6             12559,92            12559,15            12560,75            12558,6             87,7959 
 894                12615               12560,42            12556,25            12557,71            12556,8             12558,41            12556,25            54,58008 
 893,9              12520,4             12558,38            12554,03            12555,65            12554,59            12556,2             12554,03           -37,97754 
 893,8              12648,2             12556,7             12552,16            12553,95            12552,72            12554,34            12552,16            91,49902 
 893,7              12676,8             12554,55            12549,79            12551,78            12550,36            12551,99            12549,79            122,25 
 893,6              12614,6             12552,3             12547,31            12549,51            12547,88            12549,53            12547,31            62,2998 
 893,5              12474               12550,3             12545,05            12547,48            12545,63            12547,29            12545,05           -76,29688 
 893,4              12579,8             12548,84            12543,32            12546,01            12543,91            12545,57            12543,32            30,95801 
 893,3              12659,6             12547               12541,18            12544,14            12541,78            12543,45            12541,18            112,5977 
 893,2              12557,2             12544,88            12538,73            12542               12539,34            12541,01            12538,73            12,32324 
 893,1              12655,6             12543,16            12536,66            12540,26            12537,27            12538,96            12536,66            112,4404 
 893                12573,8             12541,09            12534,21            12538,16            12534,83            12536,52            12534,21            32,70996 
 892,9              12589,4             12539,35            12532,06            12536,4             12532,68            12534,39            12532,06            50,04688 
 892,8              12574,6             12537,59            12529,84            12534,61            12530,47            12532,18            12529,84            37,01367 
 892,7              12635,6             12535,9             12527,67            12532,91            12528,31            12530,03            12527,67            99,69629 
 892,6              12534               12534,02            12525,26            12531               12525,91            12527,64            12525,26           -1,953125E-02 
 892,5              12487,2             12532,56            12523,23            12529,51            12523,88            12525,62            12523,23           -45,35547 
 892,4              12555,2             12531,31            12521,37            12528,24            12522,03            12523,78            12521,37            23,88965 
 892,3              12540,2             12529,85            12519,24            12526,75            12519,91            12521,66            12519,24            10,35449 
 892,2              12482,2             12528,48            12517,16            12525,36            12517,83            12519,6             12517,16           -46,28223 
 892,1              12484,6             12527,39            12515,29            12524,24            12515,98            12517,75            12515,29           -42,79004 
 892                12519,2             12526,34            12513,41            12523,16            12514,1             12515,89            12513,41           -7,137695 
 891,9              12589,8             12525,21            12511,38            12522,01            12512,09            12513,88            12511,38            64,58789 
 891,8              12480,2             12523,88            12509,09            12520,65            12509,8             12511,6             12509,09           -43,67578 
 891,7              12575,4             12523,02            12507,2             12519,76            12507,92            12509,73            12507,2             52,38086 
 891,6              12555,6             12521,87            12504,94            12518,59            12505,67            12507,49            12504,94            33,72852 
 891,5              12631               12520,87            12502,74            12517,56            12503,48            12505,31            12502,74            110,1338 
 891,4              12550,4             12519,65            12500,26            12516,31            12501               12502,85            12500,26            30,74707 
 891,3              12574,2             12518,82            12498,06            12515,46            12498,82            12500,67            12498,06            55,37598 
 891,2              12553               12517,99            12495,78            12514,59            12496,54            12498,4             12495,78            35,00879 
 891,1              12577,6             12517,33            12493,56            12513,9             12494,34            12496,21            12493,56            60,27051 
 891                12488               12516,67            12491,24            12513,21            12492,03            12493,91            12491,24           -28,66797 
 890,9              12570,2             12516,45            12489,25            12512,96            12490,05            12491,94            12489,25            53,75098 
 890,8              12572,8             12516,02            12486,94            12512,5             12487,75            12489,65            12486,94            56,77539 
 890,7              12505,2             12515,7             12484,62            12512,15            12485,44            12487,34            12484,62           -10,5 
 890,6              12618,4             12515,75            12482,54            12512,17            12483,37            12485,29            12482,54            102,6504 
 890,5              12489,4             12515,49            12480,02            12511,88            12480,86            12482,79            12480,02           -26,08887 
 890,4              12545,8             12515,85            12477,98            12512,2             12478,84            12480,78            12477,98            29,95117 
 890,3              12530,8             12516,13            12475,73            12512,45            12476,59            12478,54            12475,73            14,67188 
 890,2              12656,4             12516,6             12473,52            12512,89            12474,4             12476,35            12473,52            139,8008 
 890,1              12539,8             12516,74            12470,82            12512,99            12471,71            12473,68            12470,82            23,05664 
 890                12552,6             12517,47            12468,56            12513,69            12469,46            12471,44            12468,56            35,125 
 889,9              12460,2             12518,31            12466,24            12514,49            12467,16            12469,14            12466,24           -58,1123 
 889,8              12525,4             12519,66            12464,26            12515,81            12465,19            12467,19            12464,26            5,736328 
 889,7              12506,8             12520,93            12462,03            12517,04            12462,97            12464,98            12462,03           -14,13281 
 889,6              12483,6             12522,45            12459,86            12518,52            12460,82            12462,83            12459,86           -38,8457 
 889,5              12562,4             12524,22            12457,77            12520,26            12458,74            12460,76            12457,77            38,17969 
 889,4              12547,6             12525,88            12455,37            12521,87            12456,36            12458,39            12455,37            21,72168 
 889,3              12459               12527,78            12453,02            12523,74            12454,02            12456,06            12453,02           -68,77832 
 889,2              12541               12530,2             12451               12526,12            12452,01            12454,06            12451               10,79785 
 889,1              12581,8             12532,51            12448,65            12528,39            12449,68            12451,75            12448,65            49,28809 
 889                12604,6             12534,86            12446,15            12530,7             12447,19            12449,26            12446,15            69,74121 
 888,9              12535,6             12537,32            12443,54            12533,12            12444,61            12446,69            12443,54           -1,719727 
 888,8              12545,4             12540,25            12441,19            12536               12442,27            12444,36            12441,19            5,15332 
 888,7              12543,8             12543,34            12438,8             12539,05            12439,89            12441,99            12438,8             0,4599609 
 888,6              12552,8             12546,65            12436,4             12542,32            12437,51            12439,62            12436,4             6,150391 
 888,5              12427,4             12550,13            12433,96            12545,75            12435,08            12437,2             12433,96           -122,7295 
 888,4              12505,2             12554,3             12431,98            12549,88            12433,13            12435,25            12431,98           -49,0957 
 888,3              12538,2             12558,38            12429,7             12553,92            12430,87            12433               12429,7            -20,18164 
 888,2              12613,6             12562,55            12427,29            12558,04            12428,47            12430,62            12427,29            51,0498 
 888,1              12530,8             12566,64            12424,58            12562,08            12425,78            12427,94            12424,58           -35,8418 
 888                12542               12571,25            12422,18            12566,65            12423,4             12425,56            12422,18           -29,25293 
 887,9              12633,6             12576,02            12419,72            12571,37            12420,96            12423,13            12419,72            57,5752 
 887,8              12647               12580,66            12416,91            12575,95            12418,17            12420,35            12416,91            66,34473 
 887,7              12593,4             12585,43            12414,03            12580,67            12415,32            12417,5             12414,03            7,972656 
 887,6              12601,2             12590,6             12411,35            12585,79            12412,66            12414,85            12411,35            10,59961 
 887,5              12581,2             12595,93            12408,63            12591,07            12409,96            12412,16            12408,63           -14,72754 
 887,4              12587,4             12601,51            12405,97            12596,6             12407,32            12409,53            12405,97           -14,1123 
 887,3              12677,2             12607,25            12403,28            12602,29            12404,66            12406,87            12403,28            69,94531 
 887,2              12600               12612,82            12400,24            12607,79            12401,64            12403,86            12400,24           -12,81641 
 887,1              12695,8             12618,84            12397,48            12613,76            12398,9             12401,13            12397,48            76,96387 
 887                12704,2             12624,63            12394,34            12619,5             12395,79            12398,03            12394,34            79,56543 
 886,9              12640,8             12630,54            12391,16            12625,34            12392,64            12394,88            12391,16            10,25977 
 886,8              12580               12636,82            12388,21            12631,56            12389,72            12391,97            12388,21           -56,82031 
 886,7              12642,2             12643,44            12385,48            12638,12            12387,01            12389,27            12385,48           -1,239258 
 886,6              12658,8             12649,93            12382,51            12644,56            12384,07            12386,33            12382,51            8,866211 
 886,5              12641,4             12656,45            12379,46            12651,01            12381,04            12383,31            12379,46           -15,04883 
 886,4              12666,8             12663,11            12376,46            12657,6             12378,08            12380,35            12376,46            3,694336 
 886,3              12603,2             12669,73            12373,36            12664,16            12375               12377,28            12373,36           -66,53223 
 886,2              12582,8             12676,64            12370,48            12671               12372,16            12374,44            12370,48           -93,8418 
 886,1              12704               12683,66            12367,67            12677,96            12369,39            12371,67            12367,67            20,33594 
 886                12595               12690,23            12364,39            12684,45            12366,14            12368,43            12364,39           -95,23047 
 885,9              12658,6             12697,21            12361,52            12691,36            12363,3             12365,59            12361,52           -38,60645 
 885,8              12683               12703,92            12358,39            12698               12360,2             12362,49            12358,39           -20,92188 
 885,7              12630,8             12710,5             12355,15            12704,5             12357               12359,3             12355,15           -79,69922 
 885,6              12744,2             12717,22            12352,1             12711,14            12353,99            12356,29            12352,1             26,9834 
 885,5              12755,2             12723,42            12348,61            12717,26            12350,54            12352,83            12348,61            31,78418 
 885,4              12674,2             12729,47            12345,06            12723,24            12347,03            12349,33            12345,06           -55,27148 
 885,3              12647,8             12735,72            12341,81            12729,41            12343,82            12346,12            12341,81           -87,91992 
 885,2              12735,6             12741,92            12338,65            12735,53            12340,7             12342,99            12338,65           -6,321289 
 885,1              12775,4             12747,63            12335,14            12741,15            12337,23            12339,52            12335,14            27,76953 
 885                12841               12753               12331,46            12746,43            12333,6             12335,89            12331,46            87,99707 
 884,9              12759               12757,92            12327,52            12751,26            12329,71            12332               12327,52            1,080078 
 884,8              12758,8             12762,93            12323,88            12756,18            12326,12            12328,4             12323,88           -4,12793 
 884,7              12752               12767,69            12320,23            12760,85            12322,51            12324,79            12320,23           -15,68945 
 884,6              12800,4             12772,21            12316,58            12765,28            12318,92            12321,19            12316,58            28,18555 
 884,5              12694,8             12776,27            12312,74            12769,23            12315,13            12317,39            12312,74           -81,46973 
 884,4              12679,2             12780,42            12309,29            12773,28            12311,73            12313,99            12309,29           -101,2197 
 884,3              12851,6             12784,32            12305,88            12777,07            12308,38            12310,63            12305,88            67,28418 
 884,2              12950               12787,21            12301,81            12779,86            12304,36            12306,6             12301,81            162,79 
 884,1              12827,2             12789,38            12297,34            12781,92            12299,96            12302,18            12297,34            37,82129 
 884                12816,2             12791,63            12293,32            12784,06            12296,01            12298,21            12293,32            24,56934 
 883,9              12908,6             12793,53            12289,33            12785,85            12292,08            12294,27            12289,33            115,0654 
 883,8              12711               12794,68            12284,98            12786,88            12287,79            12289,97            12284,98           -83,68457 
 883,7              12746,2             12796,16            12281,36            12788,24            12284,24            12286,4             12281,36           -49,96094 
 883,6              12762,8             12797,08            12277,59            12789,03            12280,55            12282,68            12277,59           -34,27539 
 883,5              12797               12797,48            12273,74            12789,31            12276,78            12278,89            12273,74           -0,4804688 
 883,4              12808,2             12797,3             12269,75            12788,99            12272,86            12274,95            12269,75            10,90234 
 883,3              12804,8             12796,61            12265,71            12788,17            12268,9             12270,96            12265,71            8,189453 
 883,2              12811,4             12795,46            12261,65            12786,88            12264,93            12266,96            12261,65            15,94238 
 883,1              12738,8             12793,8             12257,56            12785,07            12260,93            12262,92            12257,56           -55,00195 
 883                12833,2             12791,93            12253,73            12783,05            12257,19            12259,15            12253,73            41,26953 
 882,9              12805,2             12789,21            12249,53            12780,18            12253,08            12255               12249,53            15,99121 
 882,8              12830,6             12786,1             12245,41            12776,91            12249,07            12250,95            12245,41            44,50195 
 882,7              12895,8             12782,39            12241,19            12773,04            12244,95            12246,78            12241,19            113,4082 
 882,6              12804,4             12777,94            12236,7             12768,41            12240,57            12242,35            12236,7             26,45996 
 882,5              12838,8             12773,33            12232,54            12763,63            12236,52            12238,25            12232,54            65,46484 
 882,4              12714               12768,11            12228,23            12758,21            12232,34            12234,01            12228,23           -54,10547 
 882,3              12823               12762,86            12224,38            12752,77            12228,62            12230,22            12224,38            60,14258 
 882,2              12784,4             12756,71            12220,1             12746,42            12224,49            12226,01            12220,1             27,68945 
 882,1              12833               12750,23            12215,96            12739,73            12220,49            12221,93            12215,96            82,76758 
 882                12776,8             12743,1             12211,61            12732,36            12216,3             12217,65            12211,61            33,7002 
 881,9              12701,6             12735,72            12207,46            12724,74            12212,33            12213,57            12207,46           -34,12109 
 881,8              12703,6             12728,18            12203,58            12716,94            12208,64            12209,76            12203,58           -24,57715 
 881,7              12774,8             12720,2             12199,68            12708,67            12204,95            12205,92            12199,68            54,60254 
 881,6              12655               12711,53            12195,49            12699,7             12201               12201,81            12195,49           -56,52539 
 881,5              12712,6             12702,91            12191,74            12690,75            12197,52            12198,13            12191,74            9,685547 
 881,4              12619,8             12693,7             12187,76            12681,16            12193,83            12194,22            12187,76           -73,90332 
 881,3              12704               12684,49            12184,11            12671,53            12190,53            12190,66            12184,11            19,51465 
 881,2              12670,8             12674,62            12180,14            12661,19            12186,95            12186,75            12180,14           -3,820313 
 881,1              12611,4             12664,57            12176,27            12650,61            12183,54            12182,97            12176,27           -53,1709 
 881                12617,8             12654,48            12172,61            12639,91            12180,41            12179,39            12172,61           -36,68066 
 880,9              12615,4             12644,12            12168,92            12628,84            12177,34            12175,78            12168,92           -28,72266 
 880,8              12594               12633,57            12165,22            12617,48            12174,38            12172,16            12165,22           -39,57031 
 880,7              12567,2             12622,94            12161,59            12605,9             12171,61            12168,61            12161,59           -55,74023 
 880,6              12550,4             12612,29            12158,05            12594,14            12169,09            12165,16            12158,05           -61,8916 
 880,5              12610               12601,65            12154,55            12582,2             12166,81            12161,75            12154,55            8,351563 
 880,4              12516,4             12590,77            12150,82            12569,79            12164,52            12158,11            12150,82           -74,36816 
 880,3              12573,4             12580,29            12147,43            12557,52            12162,83            12154,8             12147,43           -6,888672 
 880,2              12490,2             12569,72            12143,81            12544,84            12161,22            12151,28            12143,81           -79,5166 
 880,1              12581,4             12559,64            12140,49            12532,3             12160,27            12148,05            12140,49            21,75586 
 880                12524,2             12549,5             12136,81            12519,27            12159,39            12144,47            12136,81           -25,2998 
 879,9              12541,4             12539,93            12133,34            12506,32            12159,2             12141,09            12133,34            1,474609 
 879,8              12505,6             12530,73            12129,79            12493,19            12159,48            12137,64            12129,79           -25,12891 
 879,7              12480,8             12522,21            12126,36            12480,1             12160,52            12134,31            12126,36           -41,41406 
 879,6              12491,6             12514,43            12123,01            12467,03            12162,36            12131,06            12123,01           -22,83398 
 879,5              12585,2             12507,37            12119,61            12453,88            12164,95            12127,76            12119,61            77,82617 
 879,4              12561,6             12500,83            12115,84            12440,33            12168,07            12124,1             12115,84            60,77344 
 879,3              12498,4             12495,35            12112,14            12426,84            12172,27            12120,51            12112,14            3,052734 
 879,2              12582,2             12491,21            12108,67            12413,61            12177,79            12117,15            12108,67            90,98633 
 879,1              12605,2             12487,98            12104,87            12400,06            12184,19            12113,46            12104,87            117,2197 
 879                12507,2             12485,99            12100,97            12386,47            12191,78            12109,68            12100,97            21,20703 
 878,9              12479               12485,82            12097,42            12373,3             12201,11            12106,25            12097,42           -6,824219 
 878,8              12492,2             12487,32            12093,97            12360,3             12212,03            12102,92            12093,97            4,883789 
 878,7              12605,4             12490,4             12090,45            12347,34            12224,45            12099,52            12090,45            115 
 878,6              12597,2             12494,79            12086,49            12334,03            12238,06            12095,69            12086,49            102,4121 
 878,5              12579,4             12500,99            12082,55            12320,87            12253,35            12091,87            12082,55            78,40918 
 878,4              12476,2             12509,1             12078,66            12307,89            12270,42            12088,11            12078,66           -32,89648 
 878,3              12575               12519,46            12075,15            12295,42            12289,6             12084,73            12075,15            55,53613 
 878,2              12574,4             12531,3             12071,25            12282,73            12310,1             12080,97            12071,25            43,09668 
 878,1              12529,6             12544,98            12067,33            12270,19            12332,27            12077,19            12067,33           -15,38086 
 878                12585,8             12560,58            12063,57            12257,97            12356,18            12073,57            12063,57            25,22168 
 877,9              12596,4             12577,63            12059,59            12245,71            12381,35            12069,73            12059,59            18,77539 
 877,8              12740               12596,18            12055,54            12233,58            12407,85            12065,84            12055,54            143,8223 
 877,7              12583               12615,53            12050,94            12221,09            12434,94            12061,38            12050,94           -32,53418 
 877,6              12696,6             12636,67            12046,92            12209,37            12463,61            12057,51            12046,92            59,93457 
 877,5              12666,6             12658,27            12042,44            12197,42            12492,55            12053,2             12042,44            8,329102 
 877,4              12682               12680,64            12038,07            12185,77            12522,03            12048,98            12038,07            1,360352 
 877,3              12652,4             12703,32            12033,62            12174,25            12551,61            12044,7             12033,62           -50,91504 
 877,2              12607,8             12726,1             12029,27            12163,04            12581,08            12040,51            12029,27           -118,3027 
 877,1              12716               12748,74            12025,06            12152,21            12610,17            12036,48            12025,06           -32,7373 
 877                12715               12770,23            12020,44            12141,17            12637,91            12032,03            12020,44           -55,23242 
 876,9              12671               12790,63            12015,79            12130,33            12664,32            12027,57            12015,79           -119,627 
 876,8              12743,4             12809,71            12011,3             12119,85            12689,2             12023,26            12011,3            -66,30566 
 876,7              12840,2             12826,6             12006,52            12109,31            12711,66            12018,66            12006,52            13,59766 
 876,6              12785,4             12840,86            12001,34            12098,59            12731,28            12013,68            12001,34           -55,45996 
 876,5              12805,6             12852,66            11996,36            12088,28            12748,21            12008,9             11996,36           -47,06055 
 876,4              12939,4             12861,39            11991,28            12078,08            12761,85            12004,02            11991,28            78,00977 
 876,3              12881,2             12866,31            11985,67            12067,56            12771,48            11998,62            11985,67            14,88672 
 876,2              12783               12867,89            11980,27            12057,45            12777,54            11993,42            11980,27           -84,8877 
 876,1              12828,4             12866,07            11975,21            12047,9             12780,01            11988,59            11975,21           -37,67285 
 876                12834               12860,18            11969,97            12038,35            12778,2             11983,56            11969,97           -26,18359 
 875,9              12833,8             12850,31            11964,68            12028,96            12772,2             11978,5             11964,68           -16,50781 
 875,8              12836,2             12836,47            11959,37            12019,74            12762,05            11973,43            11959,37           -0,2714844 
 875,7              12806               12818,75            11954,04            12010,68            12747,82            11968,33            11954,04           -12,75488 
 875,6              12847,2             12797,42            11948,8             12001,89            12729,78            11963,34            11948,8             49,7832 
 875,5              12824,6             12772,42            11943,38            11993,1             12707,91            11958,17            11943,38            52,17578 
 875,4              12872               12744,28            11938,03            11984,55            12682,7             11953,08            11938,03            127,7236 
 875,3              12682,4             12713               11932,47            11975,96            12654,2             11947,79            11932,47           -30,60352 
 875,2              12650,2             12679,89            11927,62            11968,24            12623,68            11943,21            11927,62           -29,68555 
 875,1              12687,6             12644,66            11922,87            11960,77            12590,89            11938,74            11922,87            42,9375 
 875                12616               12607,49            11917,96            11953,29            12556               11934,12            11917,96            8,508789 
 874,9              12752,6             12569,16            11913,3             11946,21            12519,8             11929,75            11913,3             183,4404 
 874,8              12580,4             12529,24            11908,11            11938,73            12481,87            11924,86            11908,11            51,15918 
 874,7              12477,6             12489,33            11903,55            11932,02            12443,8             11920,62            11903,55           -11,73438 
 874,6              12433               12449,5             11899,37            11925,81            12405,67            11916,75            11899,37           -16,49707 
 874,5              12417,8             12409,9             11895,34            11919,88            12367,65            11913,05            11895,34            7,900391 
 874,4              12373               12370,73            11891,35            11914,1             12329,93            11909,4             11891,35            2,274414 
 874,3              12327,6             12332,36            11887,52            11908,59            12292,89            11905,92            11887,52           -4,761719 
 874,2              12264,2             12295,11            11883,84            11903,34            12256,85            11902,61            11883,84           -30,90918 
 874,1              12241               12259,23            11880,4             11898,42            12222,07            11899,53            11880,4            -18,22656 
 874                12242,4             12224,79            11877,03            11893,68            12188,63            11896,54            11877,03            17,6084 
 873,9              12207,4             12191,85            11873,64            11889               12156,57            11893,54            11873,64            15,55371 
 873,8              12168,6             12160,64            11870,37            11884,53            12126,16            11890,68            11870,37            7,958984 
 873,7              12131,8             12131,31            11867,23            11880,28            12097,52            11887,97            11867,23            0,4912109 
 873,6              12064,2             12103,87            11864,22            11876,23            12070,69            11885,4             11864,22           -39,66992 
 873,5              12094,2             12078,5             11861,46            11872,51            12045,84            11883,09            11861,46            15,69629 
 873,4              12012,4             12054,82            11858,58            11868,72            12022,59            11880,67            11858,58           -42,4209 
 873,3              11962,6             12033,22            11855,99            11865,3             12001,33            11878,57            11855,99           -70,61719 
 873,2              11941               12013,55            11853,59            11862,12            11981,94            11876,67            11853,59           -72,55078 
 873,1              11928,8             11995,63            11851,25            11859,07            11964,21            11874,86            11851,25           -66,83301 
 873                11926,6             11979,37            11848,96            11856,12            11948,07            11873,11            11848,96           -52,77344 
 872,9              11887,8             11964,64            11846,67            11853,21            11933,38            11871,38            11846,67           -76,84082 
 872,8              11943,8             11951,47            11844,51            11850,49            11920,18            11869,82            11844,51           -7,672852 
 872,7              11920,8             11939,43            11842,13            11847,59            11908,04            11868,06            11842,13           -18,62793 
 872,6              11927               11928,69            11839,83            11844,81            11897,13            11866,41            11839,83           -1,691406 
 872,5              11736               11919,06            11837,5             11842,03            11887,26            11864,77            11837,5            -183,0625 
 872,4              11871,8             11911,19            11835,89            11840,01            11879,08            11863,87            11835,89           -39,38574 
 872,3              11826               11903,72            11833,75            11837,5             11871,23            11862,49            11833,75           -77,72363 
 872,2              11969               11897,28            11831,78            11835,19            11864,33            11861,32            11831,78            71,72168 
 872,1              11827,8             11891,04            11829,26            11832,35            11857,56            11859,64            11829,26           -63,24414 
 872                11885,2             11886,02            11827,26            11830,07            11851,93            11858,55            11827,26           -0,8212891 
 871,9              11782,2             11881,39            11825,04            11827,58            11846,61            11857,28            11825,04           -99,18652 
 871,8              11930,2             11877,68            11823,21            11825,51            11842,13            11856,46            11823,21            52,52051 
 871,7              11858,6             11873,89            11820,8             11822,88            11837,48            11855,13            11820,8            -15,29297 
 871,6              11811,8             11870,8             11818,65            11820,53            11833,43            11854,14            11818,65           -59,00293 
 871,5              11790               11868,28            11816,68            11818,38            11829,85            11853,41            11816,68           -78,2793 
 871,4              11826,2             11866,19            11814,78            11816,31            11826,6             11852,84            11814,78           -39,98633 
 871,3              11779               11864,28            11812,74            11814,12            11823,41            11852,22            11812,74           -85,27637 
 871,2              11852               11862,84            11810,87            11812,11            11820,57            11851,89            11810,87           -10,83594 
 871,1              11854,8             11861,39            11808,71            11809,83            11817,6             11851,39            11808,71           -6,594727 
 871                11786,6             11860,2             11806,53            11807,54            11814,73            11851               11806,53           -73,60059 
 870,9              11803,2             11859,52            11804,61            11805,51            11812,22            11851,01            11804,61           -56,31543 
 870,8              11900,2             11859,01            11802,62            11803,42            11809,72            11851,1             11802,62            41,18555 
 870,7              11885               11858,39            11800,24            11800,97            11806,91            11851               11800,24            26,6123 
 870,6              11972               11858,07            11797,92            11798,57            11804,22            11851,13            11797,92            113,9326 
 870,5              11853,2             11857,67            11795,26            11795,84            11801,23            11851,12            11795,26           -4,464844 
 870,4              11871               11857,97            11793,04            11793,56            11798,72            11851,78            11793,04            13,02637 
 870,3              11848,8             11858,49            11790,74            11791,2             11796,17            11852,6             11790,74           -9,69043 
 870,2              11924,8             11859,38            11788,52            11788,93            11793,72            11853,76            11788,52            65,42383 
 870,1              11894               11860,28            11786               11786,37            11791               11854,92            11786               33,72266 
 870                11940,6             11861,61            11783,59            11783,92            11788,4             11856,48            11783,59            78,98633 
 869,9              11813,4             11863,11            11781               11781,29            11785,63            11858,18            11781              -49,71289 
 869,8              11945,2             11865,46            11778,87            11779,13            11783,35            11860,72            11778,87            79,74023 
 869,7              11871,8             11867,69            11776,24            11776,47            11780,57            11863,12            11776,24            4,112305 
 869,6              11923,4             11870,61            11773,88            11774,08            11778,07            11866,21            11773,88            52,79297 
 869,5              11906,4             11873,76            11771,31            11771,49            11775,38            11869,51            11771,31            32,63965 
 869,4              11847,4             11877,44            11768,79            11768,95            11772,74            11873,33            11768,79           -30,03516 
 869,3              11885,4             11881,82            11766,49            11766,63            11770,33            11877,85            11766,49            3,576172 
 869,2              11978,4             11886,58            11764,04            11764,17            11767,76            11882,73            11764,04            91,8252 
 869,1              11873,6             11891,52            11761,23            11761,34            11764,85            11887,79            11761,23           -17,91699 
 869                11959,2             11897,41            11758,8             11758,9             11762,32            11893,79            11758,8             61,78711 
 868,9              11956,2             11903,57            11756,04            11756,12            11759,46            11900,06            11756,04            52,62695 
 868,8              11918,8             11910,36            11753,27            11753,35            11756,61            11906,95            11753,27            8,436523 
 868,7              12030,4             11917,93            11750,64            11750,71            11753,89            11914,61            11750,64            112,4717 
 868,6              11946,4             11925,73            11747,58            11747,64            11750,74            11922,51            11747,58            20,66699 
 868,5              11940,8             11934,53            11744,82            11744,88            11747,91            11931,39            11744,82            6,270508 
 868,4              11961,8             11944,04            11742,08            11742,12            11745,08            11940,99            11742,08            17,75586 
 868,3              11947,8             11954,2             11739,24            11739,28            11742,17            11951,23            11739,24           -6,398438 
 868,2              11962,8             11965,12            11736,45            11736,48            11739,31            11962,23            11736,45           -2,324219 
 868,1              11952               11976,74            11733,59            11733,62            11736,38            11973,92            11733,59           -24,7373 
 868                11988,6             11989,12            11730,76            11730,78            11733,48            11986,37            11730,76           -0,5234375 
 867,9              11972,2             12002,11            11727,78            11727,8             11730,44            11999,43            11727,78           -29,91406 
 867,8              11989               12015,92            11724,84            11724,87            11727,44            12013,3             11724,84           -26,91699 
 867,7              11998               12030,38            11721,84            11721,86            11724,38            12027,83            11721,84           -32,38086 
 867,6              11995               12045,54            11718,79            11718,8             11721,27            12043,05            11718,79           -50,54297 
 867,5              11976               12061,41            11715,74            11715,75            11718,16            12058,97            11715,74           -85,41211 
 867,4              12039,2             12078,04            11712,75            11712,76            11715,12            12075,65            11712,75           -38,83496 
 867,3              12017,2             12095,09            11709,51            11709,52            11711,82            12092,76            11709,51           -77,88574 
 867,2              12171,8             12112,83            11706,34            11706,34            11708,6             12110,55            11706,34            58,97266 
 867,1              12001,2             12130,57            11702,56            11702,57            11704,78            12128,35            11702,56           -129,3721 
 867                12120,6             12149,48            11699,43            11699,44            11701,6             12147,31            11699,43           -28,88477 
 866,9              12152,4             12168,42            11695,83            11695,83            11697,95            12166,29            11695,83           -16,01953 
 866,8              12145               12187,66            11692,09            11692,09            11694,17            12185,58            11692,09           -42,66309 
 866,7              12246,4             12207,27            11688,37            11688,37            11690,4             12205,23            11688,37            39,13184 
 866,6              12279,6             12226,77            11684,24            11684,25            11686,24            12224,78            11684,24            52,8252 
 866,5              12117,4             12246,33            11679,98            11679,98            11681,93            12244,37            11679,98           -128,9258 
 866,4              12296               12266,59            11676,31            11676,32            11678,23            12264,68            11676,31            29,40723 
 866,3              12211,4             12286,19            11671,96            11671,96            11673,83            12284,32            11671,96           -74,79297 
 866,2              12362,8             12305,99            11667,9             11667,91            11669,74            12304,15            11667,9             56,80566 
 866,1              12327,2             12325,01            11663,26            11663,26            11665,06            12323,21            11663,26            2,188477 
 866                12343,8             12343,81            11658,73            11658,74            11660,5             12342,04            11658,73           -6,835938E-03 
 865,9              12419               12362,07            11654,13            11654,13            11655,86            12360,33            11654,13            56,93359 
 865,8              12391               12379,45            11649,22            11649,22            11650,92            12377,74            11649,22            11,55469 
 865,7              12380               12396,17            11644,4             11644,4             11646,06            12394,5             11644,4            -16,16699 
 865,6              12425               12412,05            11639,6             11639,6             11641,23            12410,41            11639,6             12,95313 
 865,5              12464,4             12426,7             11634,61            11634,61            11636,21            12425,08            11634,61            37,70508 
 865,4              12492               12439,99            11629,45            11629,45            11631,03            12438,41            11629,46            52,00586 
 865,3              12437,2             12451,85            11624,17            11624,17            11625,72            12450,29            11624,18           -14,64648 
 865,2              12517               12462,39            11619,08            11619,08            11620,6             12460,86            11619,08            54,60938 
 865,1              12519,6             12470,99            11613,66            11613,66            11615,15            12469,49            11613,67            48,60645 
 865                12502,4             12477,79            11608,21            11608,21            11609,68            12476,31            11608,23            24,60742 
 864,9              12559,2             12482,75            11602,81            11602,81            11604,25            12481,28            11602,84            76,45117 
 864,8              12507,8             12485,48            11597,17            11597,17            11598,59            12484,02            11597,21            22,32422 
 864,7              12589,8             12486,28            11591,71            11591,71            11593,1             12484,84            11591,76            103,5166 
 864,6              12523               12484,6             11585,91            11585,91            11587,28            12483,17            11585,98            38,39746 
 864,5              12446,6             12480,95            11580,35            11580,35            11581,69            12479,51            11580,44           -34,35059 
 864,4              12471               12475,35            11575,05            11575,05            11576,37            12473,89            11575,19           -4,345703 
 864,3              12555,6             12467,41            11569,64            11569,64            11570,94            12465,93            11569,83            88,18848 
 864,2              12424               12456,96            11563,89            11563,89            11565,17            12455,42            11564,14           -32,95508 
 864,1              12477,6             12444,85            11558,62            11558,62            11559,88            12443,25            11558,96            32,74805 
 864                12377,4             12430,49            11553,12            11553,12            11554,36            12428,79            11553,59           -53,09082 
 863,9              12426,6             12414,56            11547,99            11547,99            11549,2             12412,72            11548,61            12,04004 
 863,8              12342               12396,61            11542,64            11542,64            11543,84            12394,58            11543,48           -54,60742 
 863,7              12344               12377,3             11537,6             11537,6             11538,78            12375,01            11538,71           -33,30078 
 863,6              12286,2             12356,46            11532,53            11532,53            11533,69            12353,83            11534              -70,25488 
 863,5              12359,6             12334,48            11527,67            11527,67            11528,81            12331,41            11529,6             25,11914 
 863,4              12204               12311,05            11522,5             11522,5             11523,62            12307,4             11525,03           -107,0527 
 863,3              12113               12287,21            11517,91            11517,91            11519,01            12282,82            11521,2            -174,2148 
 863,2              12246,4             12262,94            11513,64            11513,64            11514,73            12257,59            11517,91           -16,53906 
 863,1              12206,2             12237,55            11508,86            11508,86            11509,93            12230,98            11514,35           -31,34961 
 863                12228,4             12211,93            11504,2             11504,2             11505,26            12203,83            11511,25            16,46777 
 862,9              12192,8             12186,05            11499,45            11499,45            11500,49            12176,03            11508,43            6,748047 
 862,8              12031               12160,33            11494,81            11494,81            11495,83            12147,92            11506,2            -129,3271 
 862,7              12069               12135,49            11490,77            11490,77            11491,78            12120,12            11505,13           -66,49023 
 862,6              12048,8             12110,99            11486,57            11486,57            11487,57            12091,98            11504,58           -62,18848 
 862,5              12040               12087,31            11482,43            11482,43            11483,41            12063,85            11504,91           -47,30957 
 862,4              12026               12064,65            11478,31            11478,31            11479,28            12035,78            11506,21           -38,64746 
 862,3              12084,8             12043,27            11474,23            11474,23            11475,18            12007,88            11508,67            41,52539 
 862,2              12052,2             12023,21            11469,9             11469,9             11470,84            11979,97            11512,21            28,99023 
 862,1              11954               12005,07            11465,69            11465,69            11466,61            11952,46            11517,37           -51,06738 
 862                11986,8             11989,41            11461,83            11461,83            11462,74            11925,71            11524,62           -2,610352 
 861,9              11904,8             11976,04            11457,83            11457,83            11458,73            11899,27            11533,71           -71,24512 
 861,8              12086,8             11965,72            11454,13            11454,13            11455,02            11873,61            11545,36            121,082 
 861,7              11939               11957,77            11449,73            11449,73            11450,6             11847,81            11558,8            -18,76563 
 861,6              11987,6             11953,76            11445,86            11445,86            11446,73            11823,15            11575,61            33,83789 
 861,5              12019               11953,29            11441,8             11441,8             11442,65            11798,95            11595,29            65,70898 
 861,4              12091               11956,74            11437,61            11437,61            11438,45            11775,28            11618,23            134,2607 
 861,3              12085,6             11964,27            11433,12            11433,12            11433,95            11752,01            11644,55            121,3301 
 861,2              12092,2             11976,45            11428,64            11428,64            11429,46            11729,47            11674,8             115,748 
 861,1              12056,2             11993,52            11424,11            11424,11            11424,92            11707,62            11709,21            62,67578 
 861                12063,2             12015,84            11419,71            11419,71            11420,5             11686,65            11748,11            47,35742 
 860,9              12196,2             12043,44            11415,26            11415,26            11416,05            11666,38            11791,54            152,7627 
 860,8              12216               12075,97            11410,29            11410,29            11411,07            11646,33            11839,16            140,0254 
 860,7              12316,4             12113,89            11405,22            11405,22            11405,99            11626,94            11891,41            202,5146 
 860,6              12189               12156,9             11399,76            11399,76            11400,51            11607,88            11948,02            32,10449 
 860,5              12277,6             12205,7             11394,75            11394,75            11395,5             11590,02            12009,69            71,89941 
 860,4              12335,8             12259,31            11389,4             11389,4             11390,13            11572,53            12075,44            76,49316 
 860,3              12300               12317,56            11383,79            11383,79            11384,52            11555,48            12145,15           -17,56445 
 860,2              12385               12380,35            11378,31            11378,31            11379,03            11539,23            12218,7             4,654297 
 860,1              12472,4             12446,76            11372,48            11372,48            11373,19            11523,3             12295,23            25,63965 
 860                12587               12516,09            11366,29            11366,29            11367               11507,65            12374,04            70,91113 
 859,9              12579               12587,54            11359,65            11359,65            11360,34            11492,15            12454,36           -8,544922 
 859,8              12537,6             12660,82            11353,01            11353,01            11353,7             11477,23            12535,92           -123,2246 
 859,7              12629,4             12735,05            11346,5             11346,5             11347,18            11463,02            12617,87           -105,6504 
 859,6              12709,2             12808,83            11339,62            11339,62            11340,29            11448,95            12698,84           -99,63281 
 859,5              12817,2             12881,08            11332,41            11332,41            11333,07            11435,07            12777,77           -63,88184 
 859,4              12936,2             12950,66            11324,76            11324,76            11325,42            11421,22            12853,55           -14,45703 
 859,3              12824,8             13016,47            11316,63            11316,63            11317,28            11407,34            12925,11           -191,667 
 859,2              13020,4             13078,2             11308,9             11308,9             11309,53            11394,28            12992,18           -57,79883 
 859,1              13060,8             13133,71            11300,38            11300,38            11301,01            11380,84            13052,62           -72,90723 
 859                13156,6             13182,49            11291,69            11291,69            11292,31            11367,6             13105,96           -25,8877 
 858,9              13137,8             13223,42            11282,59            11282,59            11283,21            11354,29            13151,11           -85,62402 
 858,8              13180,4             13256,14            11273,53            11273,53            11274,14            11341,35            13187,71           -75,7373 
 858,7              13275,6             13279,62            11264,28            11264,28            11264,88            11328,51            13214,78           -4,015625 
 858,6              13151,6             13293,11            11254,63            11254,63            11255,22            11315,55            13231,59           -141,5107 
 858,5              13218,8             13296,99            11245,41            11245,41            11245,99            11303,29            13238,52           -78,18555 
 858,4              13240,6             13290,26            11235,9             11235,9             11236,48            11290,97            13234,61           -49,65723 
 858,3              13278,6             13272,98            11226,27            11226,27            11226,85            11278,75            13219,94            5,619141 
 858,2              13300,6             13245,17            11216,46            11216,46            11217,03            11266,54            13194,52            55,43359 
 858,1              13262,8             13207,08            11206,54            11206,54            11207,1             11254,4             13158,66            55,71484 
 858                13145,2             13159,39            11196,71            11196,71            11197,27            11242,54            13113,01           -14,19043 
 857,9              13226               13102,92            11187,3             11187,3             11187,85            11231,24            13058,43            123,084 
 857,8              13076               13037,55            11177,54            11177,54            11178,08            11219,73            12994,83            38,44531 
 857,7              13127,6             12965,05            11168,32            11168,32            11168,86            11208,89            12923,95            162,5469 
 857,6              13023,8             12885,47            11158,87            11158,87            11159,4             11197,93            12845,88            138,333 
 857,5              12877,4             12800,45            11149,77            11149,77            11150,3             11187,43            12762,26            76,9502 
 857,4              12742,2             12711,15            11141,2             11141,2             11141,72            11177,56            12674,27            31,05176 
 857,3              12671               12618,53            11133,11            11133,11            11133,62            11168,25            12582,87            52,47168 
 857,2              12666,8             12523,51            11125,26            11125,26            11125,76            11159,27            12488,99            143,2881 
 857,1              12465,6             12426,79            11117,39            11117,39            11117,89            11150,34            12393,33            38,81445 
 857                12396,8             12330,21            11110,26            11110,26            11110,76            11142,22            12297,76            66,58594 
 856,9              12178,6             12234,19            11103,37            11103,37            11103,86            11134,39            12202,68           -55,59277 
 856,8              12148,8             12140,11            11097,28            11097,28            11097,76            11127,41            12109,49            8,685547 
 856,7              11990               12048,17            11091,28            11091,28            11091,76            11120,58            12018,38           -58,16797 
 856,6              11914,6             11959,44            11085,86            11085,86            11086,33            11114,38            11930,45           -44,8418 
 856,5              11818               11874,32            11080,7             11080,7             11081,18            11108,48            11846,07           -56,31934 
 856,4              11640,4             11793,33            11075,9             11075,9             11076,37            11102,96            11765,79           -152,9258 
 856,3              11613               11717,12            11071,75            11071,75            11072,21            11098,14            11690,26           -104,1182 
 856,2              11640,4             11645,51            11067,69            11067,69            11068,15            11093,44            11619,3            -5,106445 
 856,1              11442,4             11578,39            11063,51            11063,51            11063,97            11088,65            11552,8            -135,9883 
 856                11469,6             11516,8             11060,07            11060,07            11060,52            11084,62            11491,8            -47,19922 
 855,9              11436,4             11459,87            11056,51            11056,51            11056,96            11080,5             11435,43           -23,46484 
 855,8              11395,8             11407,73            11053,07            11053,07            11053,51            11076,52            11383,84           -11,92969 
 855,7              11356,6             11360,36            11049,76            11049,76            11050,2             11072,7             11337              -3,764648 
 855,6              11230,2             11317,54            11046,6             11046,6             11047,03            11069,03            11294,67           -87,33594 
 855,5              11167,2             11279,41            11043,9             11043,9             11044,33            11065,85            11257,03           -112,2139 
 855,4              11185,4             11245,49            11041,43            11041,43            11041,85            11062,92            11223,57           -60,08691 
 855,3              11204,6             11215,16            11038,88            11038,88            11039,3             11059,93            11193,7            -10,56055 
 855,2              11093,8             11188,18            11036,25            11036,25            11036,67            11056,86            11167,15           -94,37988 
 855,1              11107,6             11164,72            11034,03            11034,03            11034,44            11054,23            11144,11           -57,12012 
 855                11101,6             11144,04            11031,75            11031,75            11032,16            11051,54            11123,84           -42,43945 
 854,9              11175,2             11125,92            11029,49            11029,49            11029,89            11048,89            11106,11            49,28125 
 854,8              11078               11109,77            11026,93            11026,93            11027,33            11045,96            11090,35           -31,77148 
 854,7              11001,6             11096               11024,74            11024,74            11025,13            11043,39            11076,95           -94,39941 
 854,6              10972               11084,27            11022,83            11022,83            11023,22            11041,13            11065,57           -112,2666 
 854,5              10972,4             11074,18            11021,02            11021,02            11021,41            11038,97            11055,84           -101,7822 
 854,4              11085,4             11065,42            11019,2             11019,2             11019,59            11036,82            11047,42            19,98145 
 854,3              10991,6             11057,36            11016,95            11016,95            11017,33            11034,24            11039,69           -65,75879 
 854,2              11139,4             11050,63            11015,05            11015,05            11015,43            11032,02            11033,27            88,77539 
 854,1              11015,2             11044,14            11012,58            11012,58            11012,95            11029,24            11027,1            -28,94336 
 854                11059               11038,82            11010,56            11010,56            11010,94            11026,93            11022,09            20,17578 
 853,9              11030,6             11033,91            11008,38            11008,38            11008,75            11024,45            11017,47           -3,311523 
 853,8              11030,6             11029,58            11006,3             11006,3             11006,66            11022,08            11013,43            1,018555 
 853,7              11060               11025,64            11004,2             11004,2             11004,57            11019,71            11009,77            34,35742 
 853,6              10940               11021,91            11001,99            11001,99            11002,35            11017,23            11006,31           -81,91113 
 853,5              11038,2             11018,9             11000,23            11000,23            11000,58            11015,2             11003,57            19,30273 
 853,4              10958,6             11015,72            10998,08            10998,08            10998,44            11012,8             11000,65           -57,12012 
 853,3              11031,4             11013,01            10996,23            10996,23            10996,58            11010,7             10998,19            18,38867 
 853,2              10936,6             11010,16            10994,1             10994,1             10994,45            11008,33            10995,59           -73,56055 
 853,1              10970,6             11007,78            10992,32            10992,32            10992,66            11006,31            10993,44           -37,17578 
 853                10990,4             11005,34            10990,4             10990,4             10990,74            11004,16            10991,25           -14,94336 
 852,9              10995,8 
 852,8              10980,6 
 852,7              10895,6 
 852,6              11093,4 
 852,5              10956 
 852,4              10888 
 852,3              10953,4 
 852,2              10926 
 852,1              10992,2 
 852                10855 
 851,9              10965,8 
 851,8              10925,6 
 851,7              10920 
 851,6              10914 
 851,5              10862 
 851,4              10888 
 851,3              10949,8 
 851,2              10773,2 
 851,1              10819,8 
 851                10772 
 850,9              10873,8 
 850,8              10810,2 
 850,7              10832 
 850,6              10863,2 
 850,5              10800,4 
 850,4              10821 
 850,3              10950,2 
 850,2              10824,2 
 850,1              10759,4 
 850                10838 
 849,9              10842,6 
 849,8              10791 
 849,7              10876 
 849,6              10808,8 
 849,5              10802,4 
 849,4              10764,6 
 849,3              10871,2 
 849,2              10840,8 
 849,1              10872 
 849                10845,4 
 848,9              10830,4 
 848,8              10909,2 
 848,7              10884,4 
 848,6              10794 
 848,5              10799,4 
 848,4              10814,4 
 848,3              10784,8 
 848,2              10769,8 
 848,1              10777,6 
 848                10754,6 
 847,9              10862,4 
 847,8              10789,2 
 847,7              10715,6 
 847,6              10762 
 847,5              10748 
 847,4              10699,8 
 847,3              10774,2 
 847,2              10730 
 847,1              10675,4 
 847                10697,6 
 846,9              10683,2 
 846,8              10733,6 
 846,7              10664 
 846,6              10628,2 
 846,5              10641,8 
 846,4              10637 
 846,3              10657,6 
 846,2              10665,2 
 846,1              10584,6 
 846                10666,4 
 845,9              10657,2 
 845,8              10673,6 
 845,7              10608,2 
 845,6              10687,2 
 845,5              10568 
 845,4              10639,4 
 845,3              10700 
 845,2              10580,6 
 845,1              10609,2 
 845                10606,2 
 844,9              10541 
 844,8              10561,8 
 844,7              10591,6 
 844,6              10536,2 
 844,5              10506,4 
 844,4              10589,4 
 844,3              10543,2 
 844,2              10509 
 844,1              10558,6 
 844                10569,4 
 843,9              10551,4 
 843,8              10555,4 
 843,7              10599,6 
 843,6              10424,2 
 843,5              10448,4 
 843,4              10511,2 
 843,3              10476 
 843,2              10446,6 
 843,1              10470 
 843                10542,4 
 842,9              10519,2 
 842,8              10521,4 
 842,7              10489,4 
 842,6              10449 
 842,5              10500,2 
 842,4              10524 
 842,3              10518,4 
 842,2              10409,8 
 842,1              10468,2 
 842                10413,8 
 841,9              10484 
 841,8              10418,4 
 841,7              10395,4 
 841,6              10344,2 
 841,5              10469,2 
 841,4              10472,4 
 841,3              10474,2 
 841,2              10365,6 
 841,1              10464 
 841                10516 
 840,9              10451,4 
 840,8              10398,4 
 840,7              10441,8 
 840,6              10384 
 840,5              10452,6 
 840,4              10463,2 
 840,3              10386,2 
 840,2              10499,2 
 840,1              10452,6 
 840                10420 
