B.E.(eV)           Raw Intensity       Peak Sum            Background          1s1/2              1s1/2              1s1/2              difference
 300                677,4 
 299,9              677,4 
 299,8              654 
 299,7              673,8 
 299,6              687,6 
 299,5              674,2 
 299,4              664,2 
 299,3              671,2 
 299,2              666,6 
 299,1              631,4 
 299                665,8 
 298,9              646,8 
 298,8              671 
 298,7              651,6 
 298,6              659,8 
 298,5              655,4 
 298,4              659,8 
 298,3              649,2 
 298,2              655 
 298,1              641 
 298                652 
 297,9              661,8 
 297,8              673 
 297,7              664 
 297,6              667,4 
 297,5              678 
 297,4              645 
 297,3              656,2 
 297,2              649,8 
 297,1              661 
 297                652,8 
 296,9              632,6 
 296,8              654,4 
 296,7              648,8 
 296,6              659 
 296,5              672,2 
 296,4              656 
 296,3              653,8 
 296,2              638 
 296,1              643,2 
 296                652 
 295,9              625,2 
 295,8              635,8 
 295,7              644 
 295,6              642 
 295,5              654,2 
 295,4              644,8 
 295,3              631,8 
 295,2              646,6 
 295,1              659 
 295                639,6 
 294,9              645,6 
 294,8              632,8 
 294,7              658 
 294,6              654,8 
 294,5              641,8 
 294,4              637,2 
 294,3              641,6 
 294,2              647,4 
 294,1              634,4 
 294                651,6 
 293,9              634,2 
 293,8              665 
 293,7              639,6 
 293,6              645,2 
 293,5              645,2 
 293,4              642,2 
 293,3              649 
 293,2              640 
 293,1              633,8 
 293                641,6 
 292,9              636,2 
 292,8              636,8 
 292,7              648,6 
 292,6              648,8 
 292,5              641,2 
 292,4              647,6 
 292,3              647,4 
 292,2              622 
 292,1              646,6 
 292                645,4 
 291,9              643,4 
 291,8              639 
 291,7              624,6 
 291,6              648,6 
 291,5              626,4 
 291,4              627,6 
 291,3              644 
 291,2              631 
 291,1              632,8 
 291                643,8               639,5392            635,8               635,8791            636,5407            638,7194           -3,739197 
 290,9              636,2               639,8763            635,8               635,8815            636,5696            639,0251           -3,67627 
 290,8              635,2               640,2815            635,7995            635,8835            636,5997            639,3972           -5,081482 
 290,7              636,2               640,7736            635,8002            635,887             636,6329            639,8541           -4,573547 
 290,6              635,2               641,3706            635,7997            635,8892            636,6669            640,414            -6,170593 
 290,5              622,8               642,0989            635,8005            635,8928            636,7042            641,1028           -19,29889 
 290,4              620                 643,0009            635,8173            635,9127            636,7601            641,9627           -23,00085 
 290,3              647,2               644,0945            635,8377            635,9363            636,822             643,0117            3,105469 
 290,2              639                 645,3744            635,8231            635,925             636,8516            644,244            -6,37439 
 290,1              646,6               646,9223            635,819             635,9244            636,8948            645,741            -0,3223267 
 290                640,4               648,7533            635,805             635,9142            636,9313            647,5178           -8,353271 
 289,9              657,8               650,9205            635,7991            635,9122            636,9796            649,6269            6,879456 
 289,8              651,2               653,4254            635,7706            635,8879            637,0093            652,0695           -2,225342 
 289,7              669,8               656,3246            635,7507            635,8723            637,0518            654,9019            13,4754 
 289,6              680,4               659,6061            635,7067            635,8329            637,0751            658,1116            20,79388 
 289,5              663,4               663,2878            635,649             635,78              637,0898            661,7159            0,1122437 
 289,4              675                 667,4003            635,6132            635,7493            637,1324            665,7448            7,599731 
 289,3              663,8               671,8861            635,5623            635,7039            637,1666            670,1402           -8,086121 
 289,2              661,8               676,7353            635,5258            635,6732            637,2224            674,8912           -14,9353 
 289,1              697                 681,8818            635,4918            635,6454            637,2893            679,9308            15,11816 
 289                681,8               687,199             635,4124            635,5724            637,3205            685,1309           -5,399048 
 288,9              697,4               692,6542            635,3524            635,5194            637,3827            690,4569            4,74585 
 288,8              705                 698,0894            635,2723            635,4467            637,4386            695,7487            6,910583 
 288,7              687,2               703,376             635,1822            635,3645            637,5016            700,8743           -16,17603 
 288,6              708,4               708,3958            635,115             635,3057            637,6094            705,7107            4,211426E-03 
 288,5              716,8               712,9307            635,0203            635,2201            637,7178            710,0334            3,869324 
 288,4              719,8               716,8274            634,9147            635,1242            637,8523            713,6802            2,972595 
 288,3              712                 719,9335            634,805             635,025             638,0325            716,4859           -7,933472 
 288,2              726,6               722,1306            634,7053            634,9367            638,2895            718,3149            4,469421 
 288,1              717,4               723,3077            634,5865            634,8305            638,6176            719,0327           -5,907715 
 288                720,2               723,4774            634,4796            634,7375            639,0782            718,6208           -3,277344 
 287,9              717                 722,6815            634,3688            634,6427            639,6949            717,0815           -5,681458 
 287,8              732,8               721,059             634,2621            634,5548            640,5246            714,5037            11,74103 
 287,7              695,4               718,7786            634,1348            634,4508            641,6016            710,9957           -23,37854 
 287,6              702                 716,1431            634,0557            634,4021            643,0645            706,7879           -14,14313 
 287,5              721                 713,3552            633,9678            634,3561            644,9332            702,0016            7,644775 
 287,4              717,8               710,665             633,8554            634,3039            647,274             696,7979            7,13501 
 287,3              706,4               708,3604            633,7469            634,2856            650,1976            691,3711           -1,960327 
 287,2              707,6               706,6945            633,6531            634,3295            653,788             685,8832            0,9055176 
 287,1              717,6               705,867             633,5576            634,4467            658,0908            680,4446            11,73297 
 287                711                 706,0519            633,449             634,6667            663,1279            675,1552            4,948059 
 286,9              713                 707,4187            633,3488            635,071             668,9208            670,1246            5,581299 
 286,8              721,6               710,0646            633,2459            635,7334            675,4138            665,4093            11,53534 
 286,7              714,8               714,0492            633,1318            636,7633            682,4998            661,0497            0,7507935 
 286,6              699,4               719,4289            633,0262            638,3406            690,0484            657,0923           -20,02887 
 286,5              723,8               726,2174            632,9405            640,6848            697,8514            653,5622           -2,417419 
 286,4              752,4               734,344             632,8231            644,0088            705,5753            650,4061            18,05603 
 286,3              727,6               743,7682            632,6686            648,6313            712,8693            647,6049           -16,16821 
 286,2              734,2               754,5145            632,546             655,001             719,4004            645,2052           -20,31451 
 286,1              765,6               766,52              632,4147            663,5126            724,701             643,1357           -0,9199829 
 286                785,6               779,7631            632,2426            674,5953            728,3214            641,3315            5,836914 
 285,9              796,6               794,3571            632,0445            688,7291            729,9451            639,7719            2,242859 
 285,8              809,6               810,5335            631,8319            706,3533            729,4113            638,4328           -0,9335327 
 285,7              826,8               828,6206            631,6022            727,7983            726,7492            637,2776           -1,820618 
 285,6              858,6               849,0141            631,35              753,2673            722,1784            636,2685            9,585876 
 285,5              891                 872,017             631,0565            782,7272            716,0447            635,3581            18,98303 
 285,4              913,2               897,7638            630,7206            815,9115            708,7736            634,52              15,43622 
 285,3              938,2               926,1077            630,3557            852,2695            700,804             633,7457            12,09229 
 285,2              929,6               956,5212            629,958             890,9043            692,52              633,0129           -26,92126 
 285,1              991,8               988,1893            629,5709            930,6941            684,2873            632,3498            3,610657 
 285                1012                1019,806            629,1029            970,0798            676,2794            631,6523           -7,805664 
 284,9              1043,6              1049,966            628,6083            1007,469            668,749             630,9648           -6,365845 
 284,8              1061,4              1077,05             628,0721            1041,111            661,8181            630,2646           -15,64978 
 284,7              1083,8              1099,448            627,5123            1069,323            655,5863            629,5633           -15,64844 
 284,6              1113,8              1115,677            626,9229            1090,598            650,0745            628,8502           -1,877075 
 284,5              1120                1124,495            626,2938            1103,708            645,2635            628,1118           -4,495239 
 284,4              1125,4              1125,104            625,656             1107,899            641,1413            627,3761            0,2958984 
 284,3              1140,2              1117,158            625,0104            1102,893            637,6438            626,642             23,04199 
 284,2              1122,8              1100,824            624,3448            1088,936            634,6818            625,8959            21,97607 
 284,1              1069,8              1076,809            623,7009            1066,821            632,2126            625,1779           -7,009277 
 284                1040,6              1046,271            623,1245            1037,784            630,2021            624,5331           -5,670654 
 283,9              1028,6              1010,607            622,5852            1003,303            628,5446            623,9304            17,99274 
 283,8              973,4               971,419             622,0607            965,0422            627,1514            623,3467            1,981018 
 283,7              925,6               930,4531            621,6068            924,8066            626,0223            622,8377           -4,853088 
 283,6              893,6               889,2828            621,2141            884,2161            625,1015            622,3933            4,3172 
 283,5              845,6               849,331             620,8621            844,73              624,3323            621,9929           -3,731018 
 283,4              799                 811,7941            620,5718            807,5735            623,7071            621,657            -12,79407 
 283,3              768,6               777,5465            620,3413            773,6424            623,2031            621,3837           -8,946533 
 283,2              737                 747,1397            620,1498            743,504             622,7836            621,1517           -10,13971 
 283,1              730,2               720,8253            619,9988            717,4216            622,4387            620,9626            9,374695 
 283                680,8               698,5933            619,8564            695,3935            622,1285            620,7842           -17,79333 
 282,9              681                 680,3062            619,7777            677,2881            621,902             620,6714            0,6937866 
 282,8              681,2               665,5615            619,6986            662,7073            621,6913            620,5601            15,63849 
 282,7              661,4               653,9348            619,6191            651,2296            621,4933            620,4501            7,46521 
 282,6              629                 644,9781            619,5652            642,4094            621,3318            620,3672           -15,97809 
 282,5              650,6               638,2462            619,553             635,8033            621,2214            620,3275            12,35382 
 282,4              643,6               633,2346            619,5129            630,908             621,0912            620,2612            10,36536 
 282,3              635,8               629,5942            619,4818            627,3753            620,9771            620,2053            6,205811 
 282,2              643,8               626,9987            619,4607            624,8801            620,8795            620,1606            16,80127 
 282,1              632,2               625,1581            619,4292            623,1328            620,7771            620,1066            7,041931 
 282                634,4               623,8865            619,4127            621,9485            620,6948            620,0687            10,51349 
 281,9              641                 623,004             619,3934            621,1476            620,6143            620,0289            17,99597 
 281,8              612                 622,3842            619,3654            620,6042            620,5295            619,9814           -10,38422 
 281,7              619,2               621,986             619,3749            620,2778            620,4859            619,9722           -2,786011 
 281,6              614,2               621,7013            619,3752            620,0604            620,4366            619,9547           -7,501282 
 281,5              617,8               621,5038            619,3819            619,9263            620,397             619,9443           -3,703796 
 281,4              608,2               621,3539            619,3839            619,8362            620,3555            619,9301           -13,15393 
 281,3              614                 621,2506            619,3984            619,7892            620,3293            619,9289           -7,25061 
 281,2              631,4               621,1618            619,4053            619,7536            620,298             619,9209            10,23822 
 281,1              635,2               621,0651            619,3898            619,7072            620,2465            619,8911            14,13489 
 281                619                 620,9736            619,3694            619,6633            620,1923            619,8569           -1,973633 
 280,9              611                 620,9099            619,3699            619,6447            620,1608            619,8441           -9,909851 
 280,8              624,6               620,8619            619,3807            619,6394            620,1416            619,8423            3,738098 
 280,7              608                 620,8004            619,374             619,6186            620,1064            619,8234           -12,80042 
 280,6              638,4               620,764             619,3887            619,6207            620,0942            619,8264            17,63599 
 280,5              613,6               620,6912            619,3641            619,5847            620,0442            619,7905           -7,091248 
 280,4              628                 620,6532            619,3715            619,5815            620,0275            619,7872            7,346802 
 280,3              616,8               620,5991            619,3604            619,5607            619,9936            619,7656           -3,799072 
 280,2              626                 620,5616            619,3637            619,5549            619,9752            619,7589            5,438416 
 280,1              615,6               620,5143            619,3552            619,5379            619,946             619,7407           -4,914307 
 280                618,4               620,4823            619,36              619,5348            619,9313            619,7361           -1,122314 
