B.E.(eV)           Raw Intensity       Peak Sum            Background          1s1/2              1s1/2              difference
 300                631,2 
 299,9              635,4 
 299,8              644,4 
 299,7              645,2 
 299,6              636,8 
 299,5              648,8 
 299,4              669,8 
 299,3              657,6 
 299,2              668,4 
 299,1              631 
 299                647,2 
 298,9              664 
 298,8              652,8 
 298,7              664,2 
 298,6              654,4 
 298,5              654 
 298,4              644 
 298,3              620 
 298,2              632,6 
 298,1              647,6 
 298                658,8 
 297,9              650 
 297,8              645,6 
 297,7              643,4 
 297,6              653,6 
 297,5              648 
 297,4              643,6 
 297,3              649 
 297,2              629,8 
 297,1              634,4 
 297                656,4 
 296,9              623,4 
 296,8              663,6 
 296,7              648 
 296,6              637 
 296,5              672 
 296,4              631,4 
 296,3              668,2 
 296,2              622,8 
 296,1              645,2 
 296                628,4 
 295,9              642,8 
 295,8              641 
 295,7              654 
 295,6              645,6 
 295,5              631 
 295,4              644 
 295,3              647,6 
 295,2              650 
 295,1              646,6 
 295                643,4 
 294,9              646,2 
 294,8              633,8 
 294,7              644,2 
 294,6              641,4 
 294,5              645 
 294,4              639,4 
 294,3              637,8 
 294,2              627,4 
 294,1              628,4 
 294                629 
 293,9              640,6 
 293,8              635,2 
 293,7              638,4 
 293,6              643,4 
 293,5              640,8 
 293,4              622,4 
 293,3              647,4 
 293,2              646,2 
 293,1              637,2 
 293                643 
 292,9              638,4 
 292,8              650,2 
 292,7              640,8 
 292,6              654,2 
 292,5              636 
 292,4              646,8 
 292,3              628,2 
 292,2              632,8 
 292,1              641,4 
 292                641,8 
 291,9              657,6 
 291,8              630,8 
 291,7              638,2 
 291,6              647,8 
 291,5              655,8 
 291,4              654,2 
 291,3              657,4 
 291,2              641,4 
 291,1              630 
 291                648,8 
 290,9              638,6 
 290,8              638,6 
 290,7              629,8 
 290,6              636,8 
 290,5              652,8 
 290,4              645,4 
 290,3              644,6 
 290,2              654,4 
 290,1              639,6 
 290                639                 643,3176            642,36              642,4502            643,2274           -0,9576416 
 289,9              629                 643,3561            642,36              642,4533            643,2628           -14,35608 
 289,8              649,8               643,4335            642,3965            642,4932            643,3369            6,366516 
 289,7              636,6               643,4567            642,3763            642,4764            643,3566           -6,856689 
 289,6              643,6               643,5188            642,3921            642,4958            643,415             8,117676E-02 
 289,5              636,6               643,5649            642,3888            642,4964            643,4573           -6,964966 
 289,4              625,8               643,6338            642,4046            642,5162            643,5222           -17,8338 
 289,3              646,6               643,7363            642,4501            642,566             643,6204            2,863647 
 289,2              640,4               643,7866            642,4387            642,5592            643,6661           -3,386597 
 289,1              642,2               643,8593            642,4443            642,5696            643,7339           -1,659302 
 289                650                 643,9333            642,4449            642,5754            643,8029            6,066711 
 288,9              663,4               643,9935            642,4243            642,5601            643,8576            19,40656 
 288,8              648,6               644,0261            642,3669            642,5085            643,8845            4,573853 
 288,7              673,4               644,1101            642,3499            642,4977            643,9623            29,28992 
 288,6              647                 644,1398            642,2649            642,4193            643,9854            2,860229 
 288,5              641,4               644,2584            642,2519            642,4133            644,097            -2,858337 
 288,4              646,8               644,4133            642,2543            642,4232            644,2444            2,386658 
 288,3              659,4               644,5795            642,2418            642,4187            644,4026            14,8205 
 288,2              661,4               644,7436            642,1949            642,3804            644,5581            16,65643 
 288,1              645,6               644,9422            642,1423            642,337             644,7475            0,6577759 
 288                649                 645,2333            642,1329            642,3375            645,0286            3,766724 
 287,9              648,2               645,5752            642,1141            642,3294            645,3599            2,624817 
 287,8              657,6               645,9922            642,0974            642,3243            645,7653            11,60779 
 287,7              652,8               646,4707            642,055             642,2943            646,2314            6,329285 
 287,6              655,6               647,0661            642,0256            642,2785            646,8132            8,533875 
 287,5              664,6               647,775             641,9885            642,256             647,5074            16,82495 
 287,4              664,8               648,5996            641,9266            642,2103            648,316             16,20038 
 287,3              659,6               649,5833            641,864             642,1652            649,2821            10,01666 
 287,2              658,8               650,7601            641,8155            642,136             650,4396            8,039917 
 287,1              640                 652,1375            641,769             642,1111            651,7955           -12,13751 
 287                641                 653,7815            641,7739            642,1402            653,4152           -12,78149 
 286,9              673,6               655,6525            641,776             642,1705            655,2581            17,94745 
 286,8              644,2               657,6749            641,6889            642,1172            657,2466           -13,47491 
 286,7              646,2               660,0242            641,6821            642,1533            659,553            -13,82416 
 286,6              670,8               662,6183            641,6697            642,1987            662,0894            8,181641 
 286,5              676,4               665,3937            641,59              642,2018            664,7819            11,00629 
 286,4              670,8               668,3988            641,4948            642,2316            667,6619            2,401184 
 286,3              678,4               671,6621            641,4146            642,3469            670,7299            6,737915 
 286,2              663                 675,1503            641,3134            642,556             673,9078           -12,15033 
 286,1              658,4               678,945             641,2541            642,9904            677,2087           -20,54498 
 286                692,2               683,0535            641,2072            643,7213            680,5394            9,146545 
 285,9              691,4               687,4386            641,0676            644,7858            683,7205            3,961426 
 285,8              693,6               692,3022            640,9299            646,4706            686,7615            1,297791 
 285,7              703,4               697,787             640,7858            649,0135            689,5593            5,613037 
 285,6              691,8               704,076             640,6145            652,6962            691,9943           -12,276 
 285,5              722                 711,4672            640,4745            657,9191            694,0226            10,53278 
 285,4              716,4               720,1115            640,2514            664,9283            695,4346           -3,711487 
 285,3              728,6               730,3657            640,0431            674,1594            696,2493           -1,765686 
 285,2              741,4               742,3853            639,8008            685,8211            696,3649           -0,9852295 
 285,1              756,8               756,2779            639,5228            700,0399            695,7609            0,5220947 
 285                786,4               771,9656            639,202             716,7205            694,4471            14,43439 
 284,9              793,4               789,1155            638,7993            735,4785            692,4363            4,284546 
 284,8              808,4               807,2289            638,3763            755,7373            689,8679            1,171143 
 284,7              838,2               825,4459            637,9111            776,5416            686,8154            12,75409 
 284,6              829,8               842,6694            637,3631            796,6945            683,3381           -12,86945 
 284,5              848,6               857,7762            636,8366            814,9711            679,6417           -9,17627 
 284,4              854,8               869,4373            636,2572            829,9481            675,7463           -14,63727 
 284,3              878,8               876,5506            635,6593            840,4381            671,7718            2,24939 
 284,2              894,8               878,2096            634,9941            845,4587            667,7451            16,59039 
 284,1              893                 874,001             634,2833            844,5352            663,7491            18,99896 
 284                866                 864,0433            633,5754            837,7327            659,886             1,956726 
 283,9              864,8               848,9811            632,9396            825,6547            656,2661            15,81885 
 283,8              803,4               829,7333            632,3052            809,189             652,8494           -26,33325 
 283,7              806,8               807,7287            631,8371            789,7432            649,8226           -0,9287109 
 283,6              755,2               784,1406            631,3584            768,4802            647,0188           -28,94061 
 283,5              775,2               760,4453            631,0196            746,8716            644,5933            14,75476 
 283,4              744,4               737,5986            630,6251            725,8765            642,3473            6,801392 
 283,3              717                 716,6381            630,3138            706,5411            640,4108            0,3619385 
 283,2              700                 698,1633            630,0767            689,4779            638,7621            1,83667 
 283,1              679,8               682,4443            629,8854            674,974             637,3557           -2,644287 
 283                680,2               669,5454            629,7488            663,1117            636,1825            10,6546 
 282,9              661,8               659,2582            629,6108            653,7018            635,1672            2,541809 
 282,8              655                 651,3456            629,5227            646,5267            634,3416            3,654419 
 282,7              654,2               645,4177            629,453             641,215             633,6556            8,782349 
 282,6              642,6               641,0767            629,3853            637,3871            633,0748            1,523254 
 282,5              621,4               637,998             629,3491            634,7342            632,6129           -16,59796 
 282,4              612,4               635,8958            629,3708            632,9851            632,2815           -23,49573 
 282,3              634                 634,4812            629,4173            631,8636            632,0349           -0,4812012 
 282,2              632,8               633,4717            629,4048            631,098             631,7784           -0,6716919 
 282,1              639,2               632,7804            629,3954            630,6108            631,565             6,419617 
 282                643,4               632,2813            629,3687            630,2838            631,3662            11,11871 
 281,9              654                 631,9077            629,3303            630,0563            631,1816            22,09235 
 281,8              624,8               631,5935            629,2628            629,8676            630,9887           -6,793518 
 281,7              622                 631,4164            629,275             629,7992            630,8922           -9,416382 
 281,6              620,6               631,2844            629,2949            629,7626            630,8166           -10,68439 
 281,5              625,4               631,1814            629,3187            629,7443            630,7557           -5,781372 
 281,4              650                 631,0829            629,3294            629,7217            630,6907            18,91705 
 281,3              609,2               630,93              629,2728            629,6373            630,5656           -21,72998 
 281,2              613,6               630,8984            629,3278            629,6682            630,558            -17,2984 
 281,1              626,2               630,8627            629,3708            629,6899            630,5436           -4,66272 
 281                605,6               630,7993            629,3795            629,6793            630,4994           -25,19928 
 280,9              654,6               630,7977            629,4445            629,7269            630,5153            23,80231 
 280,8              617                 630,6671            629,3757            629,6422            630,4006           -13,66711 
 280,7              633,4               630,6437            629,4095            629,6614            630,3918            2,756348 
 280,6              645,6               630,5792            629,3986            629,637             630,3408            15,02081 
 280,5              623,4               630,4848            629,3543            629,5803            630,2588           -7,084778 
 280,4              600,8               630,4542            629,3706            629,5851            630,2396           -29,65417 
 280,3              619,4               630,4883            629,4488            629,6527            630,2844           -11,08832 
 280,2              609,2               630,4744            629,4763            629,6703            630,2803           -21,27435 
 280,1              619,2               630,4908            629,5317            629,7166            630,306            -11,29083 
 280                639,8               630,4824            629,56              629,7363            630,3062           -0,9224243 
