B.E.(eV)           Raw Intensity       Peak Sum            Background          2p1/2              2p3/2              2p1/2              2p3/2              difference
 925                7345,4 
 924,9              7276,4 
 924,8              7296,4 
 924,7              7344 
 924,6              7223,8 
 924,5              7247,4 
 924,4              7334,6 
 924,3              7306,4 
 924,2              7294,6 
 924,1              7281,2 
 924                7302,2 
 923,9              7305 
 923,8              7336 
 923,7              7314,4 
 923,6              7359,2 
 923,5              7298,4 
 923,4              7369,8 
 923,3              7317 
 923,2              7333,6 
 923,1              7318,4 
 923                7252 
 922,9              7397,6 
 922,8              7286,2 
 922,7              7195,2 
 922,6              7292,6 
 922,5              7415,2 
 922,4              7227,2 
 922,3              7302,2 
 922,2              7305,4 
 922,1              7234 
 922                7242 
 921,9              7312,2 
 921,8              7348,2 
 921,7              7327,6 
 921,6              7308,4 
 921,5              7249,4 
 921,4              7273,8 
 921,3              7267,2 
 921,2              7300,6 
 921,1              7347,2 
 921                7270,4 
 920,9              7353,8 
 920,8              7231 
 920,7              7319,2 
 920,6              7299,8 
 920,5              7228 
 920,4              7246,2 
 920,3              7253,8 
 920,2              7179 
 920,1              7257 
 920                7259,6 
 919,9              7321 
 919,8              7229,8 
 919,7              7270,4 
 919,6              7244,4 
 919,5              7194,4 
 919,4              7295,8 
 919,3              7298,2 
 919,2              7237,6 
 919,1              7250 
 919                7253 
 918,9              7247,2 
 918,8              7278,6 
 918,7              7242 
 918,6              7230,2 
 918,5              7222,4 
 918,4              7199,2 
 918,3              7334,4 
 918,2              7266,2 
 918,1              7213,8 
 918                7275 
 917,9              7225,4 
 917,8              7251,2 
 917,7              7256,6 
 917,6              7242,6 
 917,5              7234,2 
 917,4              7233,4 
 917,3              7287,4 
 917,2              7283 
 917,1              7197,2 
 917                7253,8 
 916,9              7276,2 
 916,8              7249 
 916,7              7145,4 
 916,6              7196,8 
 916,5              7120,6 
 916,4              7227,2 
 916,3              7281 
 916,2              7247,2 
 916,1              7213,2 
 916                7265,4 
 915,9              7198,4 
 915,8              7210 
 915,7              7273,6 
 915,6              7308 
 915,5              7204,8 
 915,4              7271,8 
 915,3              7202 
 915,2              7156 
 915,1              7253,6 
 915                7254 
 914,9              7231,4 
 914,8              7261,2 
 914,7              7204,8 
 914,6              7215,8 
 914,5              7281,6 
 914,4              7301,8 
 914,3              7240,2 
 914,2              7194,2 
 914,1              7182,4 
 914                7201,6 
 913,9              7201,6 
 913,8              7215,4 
 913,7              7221,4 
 913,6              7200,4 
 913,5              7364,4 
 913,4              7160,8 
 913,3              7258,6 
 913,2              7258 
 913,1              7220 
 913                7244,6 
 912,9              7251,4 
 912,8              7291,8 
 912,7              7256,8 
 912,6              7225,2 
 912,5              7219,6 
 912,4              7307,6 
 912,3              7263 
 912,2              7224,6 
 912,1              7197,2 
 912                7257,2 
 911,9              7260,4 
 911,8              7205,2 
 911,7              7236,2 
 911,6              7230,8 
 911,5              7218 
 911,4              7248 
 911,3              7267 
 911,2              7179,4 
 911,1              7315 
 911                7255,6 
 910,9              7216 
 910,8              7284,4 
 910,7              7230 
 910,6              7301,6 
 910,5              7297,2 
 910,4              7258,2 
 910,3              7264,8 
 910,2              7337,2 
 910,1              7318,6 
 910                7329,6 
 909,9              7248 
 909,8              7289,8 
 909,7              7306,6 
 909,6              7252,6 
 909,5              7293,6 
 909,4              7348,4 
 909,3              7271,2 
 909,2              7356,4 
 909,1              7327 
 909                7311 
 908,9              7315,8 
 908,8              7282,4 
 908,7              7374 
 908,6              7282 
 908,5              7365,8 
 908,4              7298,6 
 908,3              7354 
 908,2              7359,6 
 908,1              7352,4 
 908                7323,2 
 907,9              7298,8 
 907,8              7320,6 
 907,7              7319,2 
 907,6              7398 
 907,5              7410 
 907,4              7268,8 
 907,3              7378,8 
 907,2              7407,4 
 907,1              7329,2 
 907                7337,4 
 906,9              7301 
 906,8              7354,8 
 906,7              7403,4 
 906,6              7302,4 
 906,5              7309,4 
 906,4              7286,2 
 906,3              7355,4 
 906,2              7346,6 
 906,1              7296 
 906                7294,8 
 905,9              7316 
 905,8              7374,4 
 905,7              7337,4 
 905,6              7395,4 
 905,5              7331,2 
 905,4              7423,6 
 905,3              7392,4 
 905,2              7367 
 905,1              7298,4 
 905                7356,2 
 904,9              7308,2 
 904,8              7374,4 
 904,7              7364,8 
 904,6              7395,8 
 904,5              7367,8 
 904,4              7324 
 904,3              7395 
 904,2              7297,6 
 904,1              7334,4 
 904                7353,2 
 903,9              7305,8 
 903,8              7323,6 
 903,7              7314,4 
 903,6              7291 
 903,5              7287 
 903,4              7289,2 
 903,3              7344,4 
 903,2              7313,4 
 903,1              7243,4 
 903                7352 
 902,9              7360 
 902,8              7279,8 
 902,7              7204,8 
 902,6              7345,6 
 902,5              7331,6 
 902,4              7261,6 
 902,3              7291,8 
 902,2              7302,6 
 902,1              7342,6 
 902                7324,2 
 901,9              7281,4 
 901,8              7274 
 901,7              7228,8 
 901,6              7228,8 
 901,5              7303,4 
 901,4              7267,6 
 901,3              7246,2 
 901,2              7197,2 
 901,1              7251,4 
 901                7215,2 
 900,9              7258,4 
 900,8              7235,8 
 900,7              7260,6 
 900,6              7204,4 
 900,5              7191,8 
 900,4              7147 
 900,3              7139,8 
 900,2              7263,2 
 900,1              7180,2 
 900                7264,8 
 899,9              7172,2 
 899,8              7121,8 
 899,7              7195,2 
 899,6              7193,8 
 899,5              7087 
 899,4              7194,8 
 899,3              7131,8 
 899,2              7146,6 
 899,1              7145,2 
 899                7241 
 898,9              7162,2 
 898,8              7231,4 
 898,7              7158,4 
 898,6              7082,4 
 898,5              7084,4 
 898,4              7105,6 
 898,3              7089,6 
 898,2              7146,2 
 898,1              7118,4 
 898                7122,6 
 897,9              7079,4 
 897,8              7099,2 
 897,7              7015 
 897,6              7056,8 
 897,5              7058,6 
 897,4              7031,2 
 897,3              7019,6 
 897,2              7073,6 
 897,1              7000 
 897                6938,8 
 896,9              7066,4 
 896,8              7052,8 
 896,7              7056,2 
 896,6              7095,4 
 896,5              6990 
 896,4              6999,2 
 896,3              7060,8 
 896,2              7002,8 
 896,1              7066,6 
 896                6973,2 
 895,9              7020,4 
 895,8              7008,4 
 895,7              6954,4 
 895,6              6981,8 
 895,5              6975 
 895,4              6979,8 
 895,3              6897,8 
 895,2              6945,2 
 895,1              6898 
 895                7000,4 
 894,9              6995,2 
 894,8              6960 
 894,7              6939,4 
 894,6              6938,2 
 894,5              6953,2 
 894,4              6963,6 
 894,3              6995,2 
 894,2              6909,8 
 894,1              6986,6 
 894                6933,6 
 893,9              6911,4 
 893,8              6948,6 
 893,7              6859 
 893,6              6887,8 
 893,5              6937,6 
 893,4              6898,8 
 893,3              6905,6 
 893,2              6908 
 893,1              6948 
 893                6979,4 
 892,9              6963,6 
 892,8              6875,4 
 892,7              6918,2 
 892,6              6891,8 
 892,5              6885 
 892,4              6836,6 
 892,3              6918,4 
 892,2              6895 
 892,1              6919,2 
 892                6864 
 891,9              6866,2 
 891,8              6929 
 891,7              6905 
 891,6              6852,8 
 891,5              6853,8 
 891,4              6904,8 
 891,3              6917,6 
 891,2              6875,2 
 891,1              6844,4 
 891                6920,6 
 890,9              6808,6 
 890,8              6895,4 
 890,7              6929,4 
 890,6              6889,4 
 890,5              6882,6 
 890,4              6874,8 
 890,3              6908 
 890,2              6828,6 
 890,1              6884,8 
 890                6864                6882,098            6865,6              6880,722            6865,6              6866,977            6865,6             -15,49805 
 889,9              6860,6              6882,407            6864,596            6881,02             6864,596            6865,983            6864,596           -21,80713 
 889,8              6895                6882,832            6863,613            6881,434            6863,613            6865,012            6863,613            12,16797 
 889,7              6944,2              6883,199            6862,478            6881,79             6862,478            6863,887            6862,478            61,00098 
 889,6              6915,2              6883,452            6861,125            6882,031            6861,125            6862,545            6861,125            31,74854 
 889,5              6813,2              6883,928            6859,891            6882,496            6859,891            6861,322            6859,891           -70,72754 
 889,4              6865,4              6884,95             6859,092            6883,507            6859,092            6860,535            6859,092           -19,55029 
 889,3              6889,6              6885,861            6858,065            6884,406            6858,065            6859,52             6858,065            3,739258 
 889,2              6890                6886,78             6856,929            6885,314            6856,929            6858,395            6856,929            3,219727 
 889,1              6808,8              6887,819            6855,786            6886,341            6855,786            6857,264            6855,786           -79,01953 
 889                6842,6              6889,331            6854,989            6887,841            6854,989            6856,479            6854,989           -46,73096 
 888,9              6941,2              6890,827            6854,042            6889,325            6854,042            6855,544            6854,042            50,37354 
 888,8              6855,4              6892,031            6852,666            6890,517            6852,666            6854,18             6852,666           -36,63086 
 888,7              6933                6893,739            6851,654            6892,212            6851,654            6853,181            6851,654            39,26074 
 888,6              6951,8              6895,254            6850,303            6893,715            6850,303            6851,842            6850,303            56,54541 
 888,5              6898,8              6896,829            6848,864            6895,277            6848,864            6850,416            6848,864            1,970703 
 888,4              6868,4              6898,778            6847,648            6897,213            6847,648            6849,213            6847,648           -30,37842 
 888,3              6915,6              6901,01             6846,559            6899,432            6846,559            6848,136            6846,559            14,59033 
 888,2              6919,4              6903,188            6845,26             6901,597            6845,26             6846,851            6845,26             16,2124 
 888,1              6842,6              6905,505            6843,94             6903,901            6843,94             6845,544            6843,94            -62,90527 
 888                6972,4              6908,308            6842,946            6906,69             6842,946            6844,563            6842,946            64,0918 
 887,9              6957                6910,708            6841,387            6909,077            6841,387            6843,018            6841,387            46,29199 
 887,8              6915,6              6913,333            6839,887            6911,688            6839,887            6841,532            6839,887            2,267578 
 887,7              6894,4              6916,292            6838,56             6914,632            6838,56             6840,219            6838,56            -21,8916 
 887,6              6912,8              6919,502            6837,318            6917,829            6837,318            6838,992            6837,318           -6,702637 
 887,5              6878,4              6922,789            6835,992            6921,101            6835,992            6837,68             6835,992           -44,38867 
 887,4              6860,4              6926,378            6834,809            6924,676            6834,809            6836,512            6834,809           -65,97852 
 887,3              7012,4              6930,203            6833,699            6928,486            6833,699            6835,416            6833,699            82,19678 
 887,2              6922,8              6933,52             6831,927            6931,788            6831,927            6833,659            6831,927           -10,71973 
 887,1              6912                6937,372            6830,534            6935,625            6830,534            6832,281            6830,534           -25,37158 
 887                6978,4              6941,41             6829,182            6939,647            6829,182            6830,944            6829,182            36,98975 
 886,9              6944                6945,3              6827,537            6943,522            6827,537            6829,315            6827,537           -1,300293 
 886,8              6915,2              6949,474            6826,034            6947,68             6826,034            6827,828            6826,034           -34,27344 
 886,7              6954,4              6953,894            6824,648            6952,083            6824,648            6826,458            6824,648            0,5063477 
 886,6              6916,6              6958,267            6823,088            6956,44             6823,088            6824,914            6823,088           -41,6665 
 886,5              6953,4              6962,91             6821,684            6961,067            6821,684            6823,526            6821,684           -9,509766 
 886,4              6966,6              6967,496            6820,115            6965,637            6820,115            6821,974            6820,115           -0,8959961 
 886,3              6971,4              6972,123            6818,482            6970,247            6818,482            6820,358            6818,482           -0,7226563 
 886,2              6906                6976,806            6816,821            6974,913            6816,821            6818,714            6816,821           -70,80566 
 886,1              6970,4              6981,846            6815,436            6979,936            6815,436            6817,346            6815,436           -11,4458 
 886                7000,8              6986,665            6813,767            6984,737            6813,767            6815,694            6813,767            14,13477 
 885,9              6933,8              6991,398            6811,958            6989,453            6811,958            6813,903            6811,958           -57,59863 
 885,8              7064                6996,46             6810,432            6994,497            6810,432            6812,395            6810,432            67,54004 
 885,7              6987,4              7000,976            6808,336            6998,994            6808,336            6810,318            6808,336           -13,57568 
 885,6              7001,4              7005,831            6806,563            7003,831            6806,563            6808,563            6806,563           -4,431152 
 885,5              7031,4              7010,612            6804,721            7008,593            6804,721            6806,74             6804,721            20,7876 
 885,4              6997,2              7015,239            6802,741            7013,201            6802,741            6804,779            6802,741           -18,03906 
 885,3              6986                7019,978            6800,901            7017,92             6800,901            6802,958            6800,901           -33,97754 
 885,2              7070                7024,704            6799,101            7022,627            6799,101            6801,178            6799,101            45,2959 
 885,1              7008,8              7028,999            6796,931            7026,902            6796,931            6799,027            6796,931           -20,19922 
 885                7036                7033,464            6795,015            7031,347            6795,015            6797,132            6795,015            2,535645 
 884,9              7102                7037,705            6792,974            7035,568            6792,974            6795,111            6792,974            64,29492 
 884,8              7066,6              7041,541            6790,639            7039,383            6790,639            6792,797            6790,639            25,05908 
 884,7              7028,4              7045,384            6788,446            7043,205            6788,446            6790,625            6788,446           -16,98389 
 884,6              7128,2              7049,237            6786,41             7047,037            6786,41             6788,61             6786,41             78,96289 
 884,5              7021,8              7052,48             6783,933            7050,258            6783,933            6786,155            6783,933           -30,68066 
 884,4              7064,8              7055,991            6781,905            7053,747            6781,905            6784,149            6781,905            8,808594 
 884,3              7069,4              7059,111            6779,683            7056,845            6779,683            6781,949            6779,683            10,28857 
 884,2              7122,8              7061,984            6777,431            7059,695            6777,431            6779,72             6777,431            60,81592 
 884,1              7107,4              7064,389            6774,938            7062,077            6774,938            6777,25             6774,938            43,01123 
 884                7036,2              7066,601            6772,502            7064,266            6772,502            6774,837            6772,502           -30,40088 
 883,9              7051                7068,851            6770,363            7066,491            6770,363            6772,722            6770,363           -17,85059 
 883,8              7056,8              7070,756            6768,15             7068,372            6768,151            6770,534            6768,15            -13,95605 
 883,7              7052,6              7072,336            6765,903            7069,928            6765,903            6768,31             6765,903           -19,73584 
 883,6              7032,8              7073,629            6763,664            7071,196            6763,665            6766,096            6763,664           -40,8291 
 883,5              7118,2              7074,685            6761,501            7072,226            6761,503            6763,959            6761,501            43,51514 
 883,4              7093                7075,041            6758,96             7072,556            6758,962            6761,443            6758,96             17,95898 
 883,3              7110,6              7075,167            6756,517            7072,655            6756,52             6759,025            6756,517            35,43311 
 883,2              7092,2              7074,866            6753,987            7072,327            6753,991            6756,522            6753,987            17,33447 
 883,1              7048,4              7074,289            6751,525            7071,721            6751,531            6754,087            6751,525           -25,88867 
 883                7081,2              7073,536            6749,243            7070,94             6749,25             6751,832            6749,243            7,664063 
 882,9              7072,6              7072,276            6746,809            7069,649            6746,819            6749,425            6746,809            0,3237305 
 882,8              7055,4              7070,683            6744,401            7068,024            6744,415            6747,045            6744,401           -15,28271 
 882,7              7063                7068,79             6742,057            7066,098            6742,076            6744,73             6742,057           -5,790039 
 882,6              7136,8              7066,49             6739,67             7063,762            6739,696            6742,373            6739,67             70,30957 
 882,5              7073,2              7063,498            6736,955            7060,731            6736,99             6739,686            6736,955            9,702148 
 882,4              7115,6              7060,408            6734,501            7057,599            6734,549            6737,263            6734,501            55,19238 
 882,3              6994,6              7056,765            6731,855            7053,909            6731,918            6734,647            6731,855           -62,16455 
 882,2              7026                7053,279            6729,72             7050,372            6729,804            6732,542            6729,72            -27,2793 
 882,1              7035,6              7049,301            6727,439            7046,334            6727,552            6730,294            6727,439           -13,70117 
 882                7007,6              7044,932            6725,108            7041,898            6725,256            6727,994            6725,108           -37,33203 
 881,9              7015,2              7040,344            6722,888            7037,231            6723,082            6725,806            6722,888           -25,14404 
 881,8              7052                7035,393            6720,625            7032,187            6720,879            6723,576            6720,625            16,60742 
 881,7              7002,4              7029,967            6718,192            7026,65             6718,523            6721,178            6718,192           -27,56689 
 881,6              7093,8              7024,451            6715,964            7021,002            6716,393            6718,984            6715,964            69,34912 
 881,5              6993,6              7018,257            6713,332            7014,649            6713,885            6716,386            6713,332           -24,65674 
 881,4              6995                7012,226            6711,121            7008,427            6711,831            6714,21             6711,121           -17,22607 
 881,3              6972,2              7005,94             6708,895            7001,908            6709,801            6712,02             6708,895           -33,74023 
 881,2              6989,4              6999,532            6706,757            6995,217            6707,91             6709,919            6706,757           -10,13232 
 881,1              7048,2              6992,848            6704,536            6988,188            6705,996            6707,735            6704,536            55,35254 
 881                7009,4              6985,741            6702,051            6980,665            6703,89             6705,288            6702,051            23,65918 
 880,9              6973                6978,66             6699,723            6973,079            6702,028            6702,998            6699,723           -5,659668 
 880,8              6954,8              6971,626            6697,542            6965,433            6700,42             6700,857            6697,542           -16,82617 
 880,7              6933,6              6964,602            6695,43             6957,671            6699,006            6698,785            6695,43            -31,00146 
 880,6              6938                6957,636            6693,401            6949,819            6697,823            6696,797            6693,401           -19,63623 
 880,5              6893,4              6950,667            6691,344            6941,788            6696,787            6694,781            6691,344           -57,2666 
 880,4              6896,4              6943,949            6689,471            6933,803            6696,138            6692,95             6689,471           -47,54883 
 880,3              6891,4              6937,326            6687,577            6925,674            6695,708            6691,099            6687,577           -45,92627 
 880,2              6896,8              6930,893            6685,697            6917,459            6695,564            6689,262            6685,697           -34,09277 
 880,1              6874,2              6924,654            6683,784            6909,123            6695,706            6687,394            6683,784           -50,4541 
 880                6888,8              6918,801            6681,962            6900,81             6696,297            6685,617            6681,962           -30,00098 
 879,9              7001,4              6913,231            6680,068            6892,373            6697,225            6683,769            6680,068            88,16895 
 879,8              6874,2              6907,59             6677,68             6883,4              6698,121            6681,428            6677,68            -33,39014 
 879,7              6899,6              6902,984            6675,831            6874,95             6700,069            6679,627            6675,831           -3,384277 
 879,6              6906,6              6898,827            6673,864            6866,372            6702,474            6677,709            6673,864            7,772949 
 879,5              6861,4              6895,273            6671,858            6857,768            6705,468            6675,753            6671,858           -33,87305 
 879,4              6923,6              6892,62             6670,039            6849,375            6709,339            6673,985            6670,039            30,97998 
 879,3              6850,8              6890,479            6667,943            6840,737            6713,688            6671,941            6667,943           -39,6792 
 879,2              6924,4              6889,503            6666,153            6832,46             6719,146            6670,204            6666,153            34,89697 
 879,1              6869,8              6889,129            6664,038            6823,916            6725,147            6668,142            6664,038           -19,32959 
 879                6941,4              6889,973            6662,148            6815,677            6732,285            6666,307            6662,148            51,42725 
 878,9              6895,2              6891,545            6659,942            6807,207            6740,065            6664,157            6659,942            3,655273 
 878,8              6971                6894,403            6657,925            6799,019            6749,038            6662,197            6657,925            76,59668 
 878,7              6953,2              6898,055            6655,573            6790,604            6758,694            6659,903            6655,573            55,14502 
 878,6              7013,8              6902,933            6653,287            6782,366            6769,464            6657,676            6653,287            110,8667 
 878,5              6959,2              6908,704            6650,729            6773,984            6780,999            6655,179            6650,729            50,49658 
 878,4              6947                6915,861            6648,396            6765,957            6793,79             6652,908            6648,396            31,13867 
 878,3              6943                6924,207            6646,106            6758,104            6807,634            6650,681            6646,106            18,79297 
 878,2              6974,4              6933,653            6643,823            6750,405            6822,432            6648,463            6643,823            40,74658 
 878,1              6978,6              6943,999            6641,395            6742,705            6837,983            6646,1              6641,395            34,60156 
 878                6984,4              6955,264            6638,938            6735,131            6854,298            6643,71             6638,938            29,13574 
 877,9              6976                6967,347            6636,445            6727,677            6871,274            6641,286            6636,445            8,652832 
 877,8              6986,4              6980,196            6633,978            6720,404            6888,859            6638,889            6633,978            6,204102 
 877,7              6996,2              6993,566            6631,455            6713,238            6906,8              6636,438            6631,455            2,634277 
 877,6              7011,8              7007,319            6628,879            6706,179            6924,963            6633,936            6628,879            4,480957 
 877,5              7057,2              7021,228            6626,225            6699,206            6943,116            6631,355            6626,225            35,97217 
 877,4              6926,4              7034,982            6623,363            6692,19             6960,948            6628,57             6623,363           -108,582 
 877,3              7016,4              7049,144            6621,053            6685,887            6979,025            6626,338            6621,053           -32,74365 
 877,2              7021,8              7062,527            6618,345            6679,35             6996,157            6623,71             6618,345           -40,72754 
 877,1              7076                7075,296            6615,602            6672,938            7012,514            6621,049            6615,602            0,7041016 
 877                6972,8              7086,998            6612,613            6666,441            7027,639            6618,143            6612,613           -114,1978 
 876,9              7059,8              7098,102            6610,056            6660,534            7042,008            6615,672            6610,056           -38,30176 
 876,8              7065,4              7107,585            6607,113            6654,394            7054,602            6612,816            6607,113           -42,18555 
 876,7              7121,6              7115,583            6604,133            6648,371            7065,552            6609,926            6604,133            6,016602 
 876,6              7063,6              7121,705            6600,897            6642,24             7074,478            6606,781            6600,897           -58,10498 
 876,5              7110                7126,268            6597,898            6636,493            7081,695            6603,876            6597,898           -16,26758 
 876,4              7075,2              7128,686            6594,685            6630,674            7086,623            6600,759            6594,685           -53,48535 
 876,3              7152                7129,195            6591,609            6625,128            7089,503            6597,781            6591,609            22,80518 
 876,2              7174,4              7127,223            6588,188            6619,373            7089,765            6594,46             6588,188            47,17676 
 876,1              7117,2              7122,953            6584,655            6613,635            7087,596            6591,031            6584,655           -5,752441 
 876                7125,6              7116,701            6581,354            6608,255            7083,318            6587,836            6581,354            8,898926 
 875,9              7165                7108,198            6578,002            6602,946            7076,664            6584,593            6578,002            56,80176 
 875,8              7135,6              7097,345            6574,466            6597,567            7067,542            6581,167            6574,466            38,25537 
 875,7              7119,2              7084,52             6571,042            6592,413            7056,332            6577,857            6571,042            34,68066 
 875,6              7028                7069,756            6567,673            6587,421            7043,075            6574,605            6567,673           -41,75635 
 875,5              7065,8              7053,523            6564,684            6582,913            7028,242            6571,737            6564,684            12,27637 
 875,4              7024,8              7035,41             6561,519            6578,325            7011,427            6568,695            6561,519           -10,61035 
 875,3              7013,4              7015,921            6558,517            6573,995            6993,14             6565,82             6558,517           -2,520996 
 875,2              7013,8              6995,138            6555,552            6569,79             6973,466            6562,985            6555,552            18,66162 
 875,1              6987,4              6973,192            6552,572            6565,654            6952,542            6560,14             6552,572            14,20752 
 875                6995                6950,435            6549,693            6561,701            6930,721            6557,399            6549,693            44,56494 
 874,9              6990,8              6926,922            6546,769            6557,777            6908,065            6554,617            6546,769            63,87744 
 874,8              6975,8              6902,91             6543,85             6553,931            6884,833            6551,845            6543,85             72,89014 
 874,7              6926                6878,679            6540,984            6550,205            6861,312            6549,13             6540,984            47,3208 
 874,6              6821,4              6854,561            6538,32             6546,745            6837,833            6546,623            6538,32            -33,16064 
 874,5              6826,4              6831,012            6536,097            6543,787            6814,858            6544,561            6536,097           -4,611816 
 874,4              6770                6807,724            6533,843            6540,853            6792,084            6542,473            6533,843           -37,72412 
 874,3              6823,6              6785,117            6531,822            6538,205            6769,931            6540,625            6531,822            38,48291 
 874,2              6796                6762,886            6529,562            6535,367            6748,098            6538,544            6529,562            33,11377 
 874,1              6718,6              6741,483            6527,411            6532,685            6727,041            6536,579            6527,411           -22,8833 
 874                6810,6              6721,255            6525,584            6530,371            6707,106            6534,946            6525,584            89,34521 
 873,9              6659,6              6701,545            6523,353            6527,692            6687,643            6532,916            6523,353           -41,94482 
 873,8              6629                6683,458            6521,764            6525,693            6669,757            6531,537            6521,764           -54,4585 
 873,7              6604                6666,547            6520,301            6523,854            6653,002            6530,292            6520,301           -62,54688 
 873,6              6649,8              6650,799            6518,939            6522,149            6637,368            6529,161            6518,939           -0,9995117 
 873,5              6571,2              6635,94             6517,374            6520,271            6622,582            6527,835            6517,374           -64,73975 
 873,4              6609,6              6622,495            6516,141            6518,752            6609,169            6526,855            6516,141           -12,89453 
 873,3              6605,6              6609,938            6514,737            6517,088            6596,607            6525,717            6514,737           -4,337891 
 873,2              6551                6598,439            6513,345            6515,459            6585,066            6524,604            6513,345           -47,43945 
 873,1              6504,8              6588,17             6512,182            6514,082            6574,715            6523,737            6512,182           -83,37012 
 873                6522,4              6579,06             6511,214            6512,918            6565,487            6523,082            6511,214           -56,65967 
 872,9              6537                6570,78             6510,166            6511,693            6557,052            6522,367            6510,166           -33,77979 
 872,8              6512                6563,284            6509,05             6510,417            6549,362            6521,604            6509,05            -51,28369 
 872,7              6483                6556,693            6508,037            6509,26             6542,539            6520,968            6508,037           -73,69336 
 872,6              6561                6550,96             6507,146            6508,238            6536,535            6520,479            6507,146            10,03955 
 872,5              6529                6545,571            6505,913            6506,887            6530,833            6519,677            6505,913           -16,57129 
 872,4              6570,6              6540,94             6504,813            6505,682            6525,846            6519,039            6504,813            29,66016 
 872,3              6486,8              6536,691            6503,528            6504,302            6521,195            6518,25             6503,528           -49,89111 
 872,2              6457,8              6533,316            6502,601            6503,288            6517,374            6517,856            6502,601           -75,5166 
 872,1              6576,8              6530,53             6501,794            6502,405            6514,088            6517,625            6501,794            46,26953 
 872                6505,8              6527,648            6500,47             6501,012            6510,655            6516,922            6500,47            -21,84863 
 871,9              6516                6525,449            6499,447            6499,928            6507,845            6516,57             6499,447           -9,44873 
 871,8              6523,6              6523,542            6498,376            6498,801            6505,268            6516,226            6498,376            5,761719E-02 
 871,7              6558,4              6521,909            6497,267            6497,643            6502,896            6515,903            6497,267            36,49121 
 871,6              6519                6520,401            6496,002            6496,334            6500,58             6515,492            6496,002           -1,401367 
 871,5              6542                6519,316            6494,903            6495,196            6498,608            6515,318            6494,903            22,68408 
 871,4              6548,6              6518,362            6493,7              6493,958            6496,684            6515,119            6493,7              30,23828 
 871,3              6507                6517,593            6492,462            6492,689            6494,855            6514,974            6492,462           -10,59326 
 871,2              6503                6517,206            6491,4              6491,6              6493,31             6515,096            6491,4             -14,20557 
 871,1              6570,8              6517,026            6490,35             6490,525            6491,867            6515,334            6490,35             53,77344 
 871                6516,4              6516,737            6489,002            6489,156            6490,201            6515,384            6489,002           -0,3374023 
 870,9              6561,6              6516,863            6487,884            6488,019            6488,828            6515,785            6487,884            44,73682 
 870,8              6503                6516,973            6486,565            6486,683            6487,304            6516,115            6486,565           -13,97266 
 870,7              6564,4              6517,513            6485,494            6485,597            6486,071            6516,833            6485,494            46,88672 
 870,6              6560                6517,971            6484,153            6484,244            6484,601            6517,434            6484,153            42,02881 
 870,5              6536,6              6518,631            6482,825            6482,904            6483,171            6518,207            6482,825            17,96875 
 870,4              6563,6              6519,585            6481,593            6481,662            6481,859            6519,251            6481,593            44,01514 
 870,3              6454,2              6520,623            6480,239            6480,298            6480,442            6520,36             6480,239           -66,42285 
 870,2              6533,8              6522,339            6479,351            6479,403            6479,506            6522,132            6479,351            11,46094 
 870,1              6493,6              6523,934            6478,116            6478,161            6478,234            6523,771            6478,116           -30,3335 
 870                6566                6525,928            6477,049            6477,088            6477,138            6525,8              6477,049            40,07227 
 869,9              6547,2              6527,849            6475,665            6475,699            6475,731            6527,749            6475,665            19,35156 
 869,8              6558,2              6530,104            6474,355            6474,385            6474,405            6530,025            6474,355            28,0957 
 869,7              6551,2              6532,575            6472,994            6473,019            6473,031            6532,512            6472,994            18,62549 
 869,6              6555,8              6535,352            6471,655            6471,677            6471,683            6535,302            6471,655            20,44824 
 869,5              6476,4              6538,395            6470,292            6470,311            6470,312            6538,356            6470,292           -61,99512 
 869,4              6582,2              6542,081            6469,266            6469,282            6469,28             6542,05             6469,266            40,11914 
 869,3              6512,6              6545,627            6467,777            6467,792            6467,788            6545,602            6467,777           -33,02686 
 869,2              6565                6549,794            6466,584            6466,596            6466,592            6549,774            6466,584            15,20605 
 869,1              6547,2              6554,073            6465,159            6465,169            6465,165            6554,057            6465,159           -6,873047 
 869                6588,2              6558,771            6463,804            6463,813            6463,808            6558,758            6463,804            29,42969 
 868,9              6529,4              6563,646            6462,267            6462,274            6462,27             6563,635            6462,267           -34,24561 
 868,8              6529,8              6569,141            6460,977            6460,983            6460,979            6569,132            6460,977           -39,34082 
 868,7              6557,2              6575,001            6459,679            6459,685            6459,681            6574,995            6459,679           -17,80127 
 868,6              6636,2              6581,125            6458,258            6458,263            6458,259            6581,119            6458,258            55,07568 
 868,5              6602,2              6587,282            6456,489            6456,493            6456,49             6587,277            6456,489            14,91797 
 868,4              6530,8              6593,967            6454,859            6454,863            6454,86             6593,963            6454,859           -63,16748 
 868,3              6592,6              6601,35             6453,531            6453,534            6453,532            6601,346            6453,531           -8,749512 
 868,2              6608,6              6608,843            6451,931            6451,933            6451,931            6608,84             6451,931           -0,2426758 
 868,1              6569                6616,649            6450,253            6450,255            6450,253            6616,647            6450,253           -47,64941 
 868                6669,2              6624,996            6448,74             6448,742            6448,74             6624,994            6448,74             44,20459 
 867,9              6616,4              6633,274            6446,788            6446,79             6446,788            6633,273            6446,788           -16,87451 
 867,8              6654,8              6642,14             6445,055            6445,057            6445,055            6642,139            6445,055            12,65967 
 867,7              6710,2              6651,174            6443,149            6443,15             6443,149            6651,173            6443,149            59,02588 
 867,6              6678,4              6660,301            6440,995            6440,996            6440,995            6660,3              6440,995            18,09863 
 867,5              6705,2              6669,863            6438,969            6438,97             6438,969            6669,862            6438,969            35,33691 
 867,4              6648,8              6679,593            6436,819            6436,819            6436,819            6679,593            6436,819           -30,79346 
 867,3              6661,4              6689,833            6434,903            6434,903            6434,903            6689,833            6434,903           -28,43359 
 867,2              6694,6              6700,246            6432,924            6432,925            6432,924            6700,245            6432,924           -5,645508 
 867,1              6674                6710,724            6430,793            6430,794            6430,793            6710,724            6430,793           -36,72412 
 867                6755                6721,453            6428,743            6428,743            6428,743            6721,453            6428,743            33,54688 
 866,9              6727,4              6731,965            6426,333            6426,333            6426,333            6731,965            6426,333           -4,56543 
 866,8              6763,6              6742,697            6424,032            6424,032            6424,032            6742,697            6424,032            20,90332 
 866,7              6765,8              6753,314            6421,565            6421,565            6421,565            6753,314            6421,565            12,48535 
 866,6              6771                6763,937            6419,078            6419,078            6419,078            6763,937            6419,078            7,063477 
 866,5              6721,8              6774,486            6416,557            6416,557            6416,557            6774,486            6416,558           -52,68652 
 866,4              6718,2              6785,155            6414,238            6414,238            6414,238            6785,154            6414,239           -66,95459 
 866,3              6793,6              6795,701            6411,925            6411,925            6411,925            6795,701            6411,925           -2,101074 
 866,2              6806,2              6805,714            6409,276            6409,276            6409,276            6805,713            6409,277            0,4858398 
 866,1              6768,2              6815,419            6406,561            6406,561            6406,561            6815,418            6406,562           -47,21924 
 866                6809,2              6824,963            6403,998            6403,998            6403,998            6824,961            6404               -15,7627 
 865,9              6814                6833,948            6401,248            6401,248            6401,248            6833,946            6401,25            -19,94824 
 865,8              6808,6              6842,475            6398,464            6398,464            6398,464            6842,472            6398,467           -33,875 
 865,7              6837,2              6850,511            6395,692            6395,692            6395,692            6850,506            6395,697           -13,31104 
 865,6              6920,8              6857,858            6392,784            6392,784            6392,784            6857,851            6392,791            62,94189 
 865,5              6898,2              6864,201            6389,503            6389,503            6389,503            6864,191            6389,513            33,99902 
 865,4              6965,6              6869,941            6386,305            6386,305            6386,305            6869,928            6386,318            95,65869 
 865,3              6798                6874,635            6382,802            6382,802            6382,802            6874,616            6382,82            -76,63477 
 865,2              6950,6              6879,227            6380,008            6380,008            6380,008            6879,201            6380,034            71,37305 
 865,1              6870,4              6882,292            6376,542            6376,542            6376,542            6882,257            6376,578           -11,89209 
 865                6910,2              6884,776            6373,409            6373,409            6373,409            6884,728            6373,457            25,42383 
 864,9              6833,2              6886,123            6370,089            6370,089            6370,089            6886,057            6370,155           -52,92236 
 864,8              6918                6886,801            6367,088            6367,088            6367,088            6886,712            6367,177            31,19922 
 864,7              6937,2              6886,08             6363,708            6363,708            6363,708            6885,959            6363,828            51,12061 
 864,6              6906,6              6884,224            6360,23             6360,23             6360,23             6884,063            6360,391            22,37646 
 864,5              6984,2              6881,436            6356,869            6356,869            6356,869            6881,221            6357,083            102,7646 
 864,4              6813,8              6877,25             6353,159            6353,159            6353,159            6876,964            6353,444           -63,44971 
 864,3              6815,6              6872,743            6350,168            6350,168            6350,168            6872,366            6350,545           -57,14258 
 864,2              6938,8              6867,196            6347,157            6347,157            6347,157            6866,7              6347,653            71,604 
 864,1              6911,2              6860,111            6343,601            6343,601            6343,601            6859,462            6344,25             51,08887 
 864                6827,8              6852,182            6340,148            6340,148            6340,148            6851,335            6340,995           -24,38184 
 863,9              6887,6              6843,697            6337,042            6337,042            6337,042            6842,6              6338,139            43,90283 
 863,8              6794,4              6834,095            6333,663            6333,663            6333,663            6832,677            6335,08            -39,69482 
 863,7              6826,6              6824,107            6330,672            6330,672            6330,672            6822,286            6332,493            2,493164 
 863,6              6806                6813,261            6327,529            6327,529            6327,529            6810,933            6329,858           -7,26123 
 863,5              6770,8              6801,876            6324,462            6324,462            6324,462            6798,912            6327,426           -31,07617 
 863,4              6807,8              6790,099            6321,533            6321,533            6321,533            6786,345            6325,287            17,70117 
 863,3              6744,8              6777,708            6318,432            6318,432            6318,432            6772,976            6323,165           -32,90869 
 863,2              6706,8              6765,251            6315,59             6315,59             6315,59             6759,314            6321,527           -58,45117 
 863,1              6779,6              6752,716            6312,899            6312,899            6312,899            6745,302            6320,314            26,88379 
 863                6721,6              6739,753            6309,883            6309,883            6309,883            6730,54             6319,097           -18,15332 
 862,9              6637,4              6727,043            6307,104            6307,104            6307,104            6715,647            6318,5             -89,64355 
 862,8              6714,4              6714,822            6304,677            6304,677            6304,677            6700,792            6318,706           -0,421875 
 862,7              6656,8              6702,543            6301,907            6301,907            6301,907            6685,355            6319,094           -45,74316 
 862,6              6724                6690,917            6299,373            6299,373            6299,373            6669,958            6320,332            33,0835 
 862,5              6657                6679,567            6296,539            6296,539            6296,539            6654,133            6321,973           -22,56689 
 862,4              6648,4              6669,222            6293,981            6293,981            6293,981            6638,504            6324,699           -20,82227 
 862,3              6628,4              6659,791            6291,45             6291,45             6291,45             6622,863            6328,377           -31,39063 
 862,2              6660,6              6651,5              6288,994            6288,994            6288,994            6607,323            6333,17             9,100098 
 862,1              6572,4              6644,292            6286,388            6286,388            6286,388            6591,688            6338,992           -71,8916 
 862                6630,4              6638,868            6284,152            6284,152            6284,152            6576,533            6346,487           -8,467773 
 861,9              6641,2              6634,777            6281,656            6281,656            6281,656            6561,261            6355,172            6,42334 
 861,8              6646,4              6632,402            6279,103            6279,103            6279,103            6546,104            6365,401            13,99805 
 861,7              6675,6              6631,945            6276,516            6276,516            6276,516            6531,131            6377,329            43,65527 
 861,6              6657                6633,479            6273,792            6273,792            6273,792            6516,257            6391,014            23,52051 
 861,5              6650,8              6637,37             6271,136            6271,136            6271,136            6501,728            6406,778            13,42969 
 861,4              6695,2              6643,719            6268,495            6268,495            6268,495            6487,507            6424,707            51,48096 
 861,3              6666                6652,453            6265,651            6265,651            6265,651            6473,391            6444,713            13,54688 
 861,2              6696,8              6663,994            6262,922            6262,922            6262,922            6459,729            6467,186            32,80615 
 861,1              6717                6678,19             6260,047            6260,047            6260,047            6446,265            6491,972            38,81006 
 861                6727,4              6695,131            6257,073            6257,073            6257,073            6433,069            6519,135            32,26855 
 860,9              6703,8              6714,898            6254,041            6254,041            6254,041            6420,187            6548,752           -11,09863 
 860,8              6796,8              6737,646            6251,097            6251,097            6251,097            6407,768            6580,975            59,1543 
 860,7              6795,2              6762,789            6247,739            6247,739            6247,739            6395,326            6615,202            32,41162 
 860,6              6819,6              6790,673            6244,374            6244,374            6244,374            6383,26             6651,787            28,92725 
 860,5              6918                6821,004            6240,889            6240,889            6240,889            6371,469            6690,424            96,99609 
 860,4              6858                6853,285            6236,963            6236,963            6236,963            6359,625            6730,623            4,714844 
 860,3              6804,4              6887,978            6233,279            6233,279            6233,279            6348,406            6772,851           -83,57813 
 860,2              6858                6924,713            6229,812            6229,812            6229,812            6337,789            6816,735           -66,71289 
 860,1              6981,6              6962,729            6226,098            6226,098            6226,098            6327,297            6861,53             18,87109 
 860                6989,4              7001,279            6221,833            6221,833            6221,833            6316,626            6906,485           -11,87891 
 859,9              7077                7040,45             6217,517            6217,517            6217,517            6306,264            6951,702            36,55029 
 859,8              7063,8              7079,449            6212,803            6212,803            6212,803            6295,851            6996,401           -15,64941 
 859,7              7104,4              7118,151            6208,126            6208,126            6208,126            6285,817            7040,46            -13,75146 
 859,6              7186,2              7155,849            6203,253            6203,253            6203,253            6275,913            7083,189            30,35107 
 859,5              7167,8              7191,768            6198,006            6198,006            6198,006            6265,953            7123,821           -23,96826 
 859,4              7258,4              7225,819            6192,816            6192,816            6192,816            6256,354            7162,281            32,58105 
 859,3              7188,8              7257,009            6187,212            6187,212            6187,212            6246,628            7197,593           -68,20947 
 859,2              7224,6              7285,459            6181,884            6181,884            6181,884            6237,459            7229,885           -60,85938 
 859,1              7319,8              7310,258            6176,379            6176,379            6176,379            6228,374            7258,263            9,541992 
 859                7338,4              7330,648            6170,438            6170,438            6170,438            6219,106            7281,98             7,751953 
 858,9              7276,2              7346,565            6164,392            6164,392            6164,392            6209,97             7300,987           -70,36475 
 858,8              7321,4              7358,009            6158,588            6158,588            6158,588            6201,299            7315,298           -36,60889 
 858,7              7292,2              7364,203            6152,564            6152,564            6152,564            6192,62             7324,147           -72,00244 
 858,6              7414,8              7365,259            6146,64             6146,64             6146,64             6184,237            7327,662            49,54102 
 858,5              7299,6              7360,368            6140,16             6140,16             6140,16             6175,486            7325,042           -60,76807 
 858,4              7362                7350,494            6134,151            6134,151            6134,151            6167,379            7317,266            11,50586 
 858,3              7308                7334,878            6127,846            6127,846            6127,846            6159,137            7303,586           -26,87793 
 858,2              7357,4              7314,125            6121,746            6121,746            6121,746            6151,252            7284,619            43,2749 
 858,1              7326,8              7287,944            6115,407            6115,407            6115,407            6143,268            7260,084            38,85547 
 858                7331,4              7256,948            6109,173            6109,173            6109,173            6135,519            7230,603            74,45215 
 857,9              7273                7221,284            6102,892            6102,892            6102,892            6127,842            7196,334            51,71582 
 857,8              7143                7181,577            6096,836            6096,836            6096,836            6120,501            7157,912           -38,57666 
 857,7              7100,8              7138,598            6091,316            6091,316            6091,316            6113,798            7116,116           -37,79785 
 857,6              7088,6              7092,391            6085,955            6085,955            6085,955            6107,347            7070,998           -3,790527 
 857,5              7074,6              7043,372            6080,622            6080,622            6080,622            6101,012            7022,981            31,22852 
 857,4              7024,8              6992,042            6075,328            6075,328            6075,328            6094,794            6972,576            32,75732 
 857,3              7038,6              6939,055            6070,225            6070,225            6070,225            6088,84             6920,44             99,54492 
 857,2              6921,2              6884,722            6065,041            6065,041            6065,041            6082,871            6866,892            36,47852 
 857,1              6846,6              6830,066            6060,342            6060,342            6060,342            6077,447            6812,961            16,53369 
 857                6867,6              6775,466            6055,944            6055,944            6055,944            6072,38             6759,031            92,13379 
 856,9              6705                6720,951            6051,438            6051,438            6051,438            6067,253            6705,135           -15,95068 
 856,8              6676                6667,72             6047,613            6047,613            6047,613            6062,854            6652,479            8,280273 
 856,7              6550                6615,659            6043,898            6043,898            6043,898            6058,607            6600,95            -65,65918 
 856,6              6562,8              6565,481            6040,712            6040,712            6040,712            6054,925            6551,268           -2,681152 
 856,5              6518,6              6516,954            6037,456            6037,456            6037,456            6051,209            6503,201            1,645996 
 856,4              6493,6              6470,553            6034,377            6034,377            6034,377            6047,7              6457,229            23,04736 
 856,3              6369                6426,378            6031,393            6031,393            6031,393            6044,314            6413,457           -57,37793 
 856,2              6335,6              6385,073            6028,934            6028,934            6028,934            6041,479            6372,528           -49,47266 
 856,1              6294                6346,311            6026,609            6026,609            6026,609            6038,801            6334,119           -52,31055 
 856                6265,6              6310,242            6024,454            6024,454            6024,454            6036,314            6298,381           -44,6416 
 855,9              6232,2              6276,814            6022,412            6022,412            6022,412            6033,959            6265,267           -44,61426 
 855,8              6261,2              6246,027            6020,505            6020,505            6020,505            6031,757            6234,775            15,17285 
 855,7              6210,8              6217,604            6018,465            6018,465            6018,465            6029,438            6206,632           -6,804199 
 855,6              6198,4              6191,787            6016,634            6016,634            6016,634            6027,341            6181,08             6,613281 
 855,5              6150,8              6168,348            6014,849            6014,849            6014,849            6025,304            6157,893           -17,54834 
 855,4              6121,4              6147,315            6013,261            6013,261            6013,261            6023,477            6137,1             -25,91504 
 855,3              6140,8              6128,473            6011,794            6011,794            6011,794            6021,78             6118,487            12,32666 
 855,2              6050,8              6111,497            6010,237            6010,237            6010,237            6020,004            6101,729           -60,69678 
 855,1              6088,2              6096,698            6009,062            6009,062            6009,062            6018,619            6087,14            -8,497559 
 855                6017                6083,397            6007,72             6007,72             6007,72             6017,076            6074,041           -66,39746 
 854,9              6068,6              6071,911            6006,68             6006,68             6006,68             6015,843            6062,747           -3,310547 
 854,8              6034,2              6061,559            6005,412            6005,412            6005,412            6014,39             6052,581           -27,35889 
 854,7              6124,2              6052,585            6004,288            6004,288            6004,288            6013,086            6043,786            71,61523 
 854,6              5998,8              6044,31             6002,77             6002,77             6002,77             6011,396            6035,684           -45,51025 
 854,5              6072                6037,547            6001,787            6001,787            6001,787            6010,246            6029,088            34,45264 
 854,4              6001,4              6031,32             6000,483            6000,483            6000,483            6008,782            6023,021           -29,91992 
 854,3              6065,8              6026,137            5999,479            5999,479            5999,479            6007,622            6017,995            39,66309 
 854,2              5994,2              6021,324            5998,193            5998,193            5998,193            6006,184            6013,333           -27,12354 
 854,1              5962,4              6017,375            5997,21             5997,21             5997,21             6005,055            6009,53            -54,97461 
 854                6035                6014,042            5996,36             5996,36             5996,36             6004,063            6006,339           -17,68115 
 853,9              6050,4 
 853,8              5939,8 
 853,7              5976,8 
 853,6              6004,6 
 853,5              6003 
 853,4              5970,4 
 853,3              6005,6 
 853,2              5937 
 853,1              5979 
 853                6006,4 
 852,9              5928,8 
 852,8              5920,2 
 852,7              6037,8 
 852,6              5982,4 
 852,5              5952,4 
 852,4              5936,4 
 852,3              5922,8 
 852,2              5947,4 
 852,1              5900 
 852                5899,8 
 851,9              5949 
 851,8              5880,6 
 851,7              5898,4 
 851,6              5929,4 
 851,5              5896,8 
 851,4              5945,6 
 851,3              5883 
 851,2              5899,4 
 851,1              5896,2 
 851                5862 
 850,9              5927 
 850,8              5909 
 850,7              5893 
 850,6              5863,8 
 850,5              5853,2 
 850,4              5958,4 
 850,3              5947,8 
 850,2              5940 
 850,1              5883,2 
 850                5925 
 849,9              5896,6 
 849,8              5939,6 
 849,7              5910,6 
 849,6              5907,6 
 849,5              5880,8 
 849,4              5970,6 
 849,3              5916,2 
 849,2              5942,8 
 849,1              5988,2 
 849                5969,4 
 848,9              5885,4 
 848,8              5988 
 848,7              5927,8 
 848,6              5905,8 
 848,5              5923,4 
 848,4              5925,8 
 848,3              5873,6 
 848,2              5884,8 
 848,1              5882,4 
 848                5870,4 
 847,9              5848,4 
 847,8              5815,4 
 847,7              5828 
 847,6              5889 
 847,5              5873,2 
 847,4              5887,8 
 847,3              5811,4 
 847,2              5889,4 
 847,1              5873,6 
 847                5825,8 
 846,9              5920,2 
 846,8              5901,4 
 846,7              5816,6 
 846,6              5807 
 846,5              5804 
 846,4              5869,2 
 846,3              5835,6 
 846,2              5813,6 
 846,1              5785,6 
 846                5782 
 845,9              5846 
 845,8              5831,2 
 845,7              5794,8 
 845,6              5802,4 
 845,5              5866,2 
 845,4              5792,2 
 845,3              5850,4 
 845,2              5768,2 
 845,1              5785 
 845                5820,4 
 844,9              5813,6 
 844,8              5755,2 
 844,7              5834 
 844,6              5738,4 
 844,5              5833,6 
 844,4              5820,6 
 844,3              5677 
 844,2              5726 
 844,1              5720,4 
 844                5725,6 
 843,9              5748,8 
 843,8              5789,6 
 843,7              5704,8 
 843,6              5783,2 
 843,5              5789,8 
 843,4              5737,4 
 843,3              5686,8 
 843,2              5631,4 
 843,1              5740,6 
 843                5725,8 
 842,9              5733,2 
 842,8              5659,8 
 842,7              5735,2 
 842,6              5754,4 
 842,5              5756,2 
 842,4              5643,2 
 842,3              5709,2 
 842,2              5752 
 842,1              5723,2 
 842                5707,8 
 841,9              5751,2 
 841,8              5747,4 
 841,7              5705,4 
 841,6              5701,4 
 841,5              5666,4 
 841,4              5709,8 
 841,3              5709,6 
 841,2              5663,6 
 841,1              5646 
 841                5713,8 
 840,9              5683,6 
 840,8              5744 
 840,7              5711,8 
 840,6              5720,2 
 840,5              5717,4 
 840,4              5665,6 
 840,3              5653 
 840,2              5709,6 
 840,1              5685,4 
 840                5687,4 
